Time (ms),Accelerometer X (mGal),Accelerometer Y (mGal),Accelerometer Z (mGal),Gyro X,Gyro Y,Gyro Z,Magnetic X,Magnetic Y,Magnetic Z,Locomotion
25351, -1.1650391, 0.4371338, -0.060546875, 53.89404, -30.456541, -25.329588, 29.0, 46.0, 12.0, 0
25370, -1.1014404, 0.33947754, -0.119018555, 85.57128, -36.193848, -31.005857, 29.0, 46.0, 12.0, 0
25386, -1.0804443, 0.30859375, -0.16503906, 96.862785, -39.916992, -34.42383, 29.0, 46.0, 12.0, 0
25425, -1.0170898, 0.17749023, -0.26208496, 114.68505, -54.50439, -29.663084, 29.0, 46.0, 12.0, 0
25407, -1.0512695, 0.24169922, -0.2401123, 113.64745, -47.85156, -33.203125, 29.0, 46.0, 12.0, 0
25441, -0.9807129, 0.16296387, -0.272583, 106.689445, -61.157223, -27.709959, 27.0, 43.0, 8.0, 0
25465, -0.98132324, 0.18615723, -0.30407715, 99.4873, -67.74902, -27.099607, 27.0, 43.0, 8.0, 0
25482, -0.9991455, 0.21691895, -0.29797363, 94.90966, -74.21875, -26.489256, 27.0, 43.0, 8.0, 0
25503, -0.993042, 0.26879883, -0.27368164, 94.90966, -78.125, -25.329588, 27.0, 43.0, 8.0, 0
25521, -0.9807129, 0.32470703, -0.25500488, 103.69872, -91.8579, -23.742674, 27.0, 43.0, 8.0, 0
25538, -0.9892578, 0.33996582, -0.25134277, 107.05566, -96.25243, -23.559568, 28.0, 42.0, 0.0, 0
25560, -1.0357666, 0.36108398, -0.24353027, 118.89648, -109.37499, -28.32031, 28.0, 42.0, 0.0, 0
25578, -1.050415, 0.3671875, -0.22351074, 122.68066, -111.87743, -30.578611, 28.0, 42.0, 0.0, 0
25600, -1.1030273, 0.40563965, -0.17553711, 128.2959, -114.56298, -34.606934, 28.0, 42.0, 0.0, 0
25618, -1.0877686, 0.42749023, -0.15270996, 135.80322, -115.35644, -40.344234, 28.0, 42.0, 0.0, 0
25636, -0.9996338, 0.43737793, -0.1315918, 144.104, -116.638176, -41.320797, 28.0, 42.0, 0.0, 0
25657, -0.93969727, 0.4423828, -0.14929199, 150.14648, -117.61474, -40.40527, 31.0, 42.0, -8.0, 0
25676, -0.9136963, 0.4716797, -0.13586426, 154.60205, -115.96679, -43.090816, 31.0, 42.0, -8.0, 0
25693, -0.8914795, 0.51794434, -0.079833984, 156.18896, -114.86816, -47.424313, 31.0, 42.0, -8.0, 0
25715, -0.88183594, 0.52819824, -0.03527832, 154.72412, -113.46435, -49.377438, 31.0, 42.0, -8.0, 0
25732, -0.8178711, 0.508667, -0.01184082, 151.67236, -113.83056, -47.363277, 31.0, 42.0, -8.0, 0
25746, -0.79138184, 0.49682617, -0.0024414062, 145.69092, -115.1123, -40.710445, 31.0, 40.0, -17.0, 0
25770, -0.80371094, 0.47387695, 0.05090332, 133.48389, -110.595695, -38.69629, 31.0, 40.0, -17.0, 0
25788, -0.7772217, 0.51220703, 0.09851074, 117.98095, -111.51122, -34.79004, 31.0, 40.0, -17.0, 0
25813, -0.7512207, 0.54052734, 0.13208008, 114.56298, -113.22021, -29.296873, 31.0, 40.0, -17.0, 0
25831, -0.7402344, 0.51953125, 0.17370605, 113.95263, -116.271965, -15.86914, 31.0, 40.0, -17.0, 0
25847, -0.7282715, 0.510376, 0.20202637, 114.0747, -115.2954, -6.408691, 40.0, 35.0, -16.0, 0
25869, -0.6812744, 0.49694824, 0.23364258, 116.08886, -116.21093, 1.2207031, 40.0, 35.0, -16.0, 0
25887, -0.64416504, 0.47558594, 0.21740723, 121.8872, -116.57714, 7.263183, 40.0, 35.0, -16.0, 0
25909, -0.6218262, 0.42651367, 0.20593262, 124.75585, -114.68505, 11.291503, 40.0, 35.0, -16.0, 0
25927, -0.6086426, 0.38928223, 0.20007324, 120.60546, -112.18261, 19.89746, 40.0, 35.0, -16.0, 0
25941, -0.6303711, 0.36657715, 0.1932373, 111.26708, -106.811516, 29.72412, 43.0, 34.0, -19.0, 0
25965, -0.642334, 0.38110352, 0.2265625, 99.97558, -103.33251, 34.240723, 43.0, 34.0, -19.0, 0
25982, -0.6586914, 0.3935547, 0.25683594, 92.712395, -102.47802, 40.039062, 43.0, 34.0, -19.0, 0
26008, -0.6951904, 0.40808105, 0.2824707, 85.44921, -99.24316, 46.630856, 43.0, 34.0, -19.0, 0
26025, -0.7232666, 0.4494629, 0.2874756, 76.9043, -96.984856, 54.13818, 43.0, 34.0, -19.0, 0
26040, -0.7626953, 0.4873047, 0.27075195, 74.34082, -96.25243, 64.453125, 41.0, 35.0, -18.0, 0
26062, -0.7982178, 0.49523926, 0.2467041, 71.3501, -94.604485, 76.538086, 41.0, 35.0, -18.0, 0
26080, -0.8276367, 0.50549316, 0.2010498, 66.28418, -93.87206, 89.47753, 41.0, 35.0, -18.0, 0
26103, -0.87145996, 0.5157471, 0.17675781, 61.4624, -92.28515, 95.092766, 41.0, 35.0, -18.0, 0
26120, -0.8878174, 0.5316162, 0.17932129, 46.752926, -86.36474, 114.013664, 41.0, 35.0, -18.0, 0
26138, -0.87646484, 0.6419678, 0.20288086, 45.04394, -83.129875, 128.78418, 41.0, 35.0, -18.0, 0
26158, -0.8670654, 0.6135254, 0.22033691, 49.316402, -76.66016, 118.95751, 36.0, 37.0, -19.0, 0
26177, -0.9630127, 0.6517334, 0.2006836, 52.85644, -79.711914, 118.77441, 36.0, 37.0, -19.0, 0
26197, -0.95532227, 0.6904297, 0.17810059, 57.983395, -78.430176, 128.96729, 36.0, 37.0, -19.0, 0
26219, -0.9769287, 0.6439209, 0.10241699, 59.997555, -71.96045, 135.13184, 36.0, 37.0, -19.0, 0
26234, -1.0253906, 0.661499, 0.011962891, 52.185055, -67.38281, 133.54492, 36.0, 37.0, -19.0, 0
26252, -1.046875, 0.6903076, -0.0056152344, 54.26025, -63.59863, 134.94873, 32.0, 35.0, -27.0, 0
26278, -1.0322266, 0.66552734, 0.022094727, 59.387203, -58.959957, 138.5498, 32.0, 35.0, -27.0, 0
26295, -1.0350342, 0.6837158, 0.06188965, 59.753414, -53.466793, 135.0708, 32.0, 35.0, -27.0, 0
26317, -1.0196533, 0.6915283, 0.061279297, 55.114742, -47.85156, 124.51171, 32.0, 35.0, -27.0, 0
26332, -0.9871826, 0.6361084, 0.033203125, 42.968746, -42.236324, 110.41259, 32.0, 35.0, -27.0, 0
26354, -0.98999023, 0.61657715, 0.025268555, 32.89795, -38.69629, 103.82079, 30.0, 35.0, -26.0, 0
26372, -0.97961426, 0.65844727, 0.028320312, 0.48828122, -26.123045, 84.28954, 30.0, 35.0, -26.0, 0
26392, -0.9277344, 0.67456055, 0.041381836, -11.96289, -15.624999, 79.711914, 30.0, 35.0, -26.0, 0
26414, -0.8630371, 0.6578369, 0.027832031, -12.390136, -13.427733, 75.37842, 30.0, 35.0, -26.0, 0
26449, -0.8076172, 0.6278076, 0.032104492, -10.31494, 1.3427733, 41.80908, 22.0, 37.0, -24.0, 0
26512, -0.80944824, 0.58984375, 0.06567383, -23.315428, 14.709472, 1.159668, 22.0, 37.0, -24.0, 0
26530, -0.8236084, 0.5883789, 0.07104492, -31.98242, 19.348145, -13.000487, 22.0, 37.0, -24.0, 0
26548, -0.8796387, 0.6109619, 0.088378906, -44.67773, 24.658201, -26.855467, 24.0, 41.0, -28.0, 0
26588, -1.0032959, 0.6837158, 0.09277344, -46.69189, 25.93994, -45.95947, 24.0, 41.0, -28.0, 0
26569, -0.95373535, 0.6542969, 0.091796875, -51.452633, 26.18408, -37.109375, 24.0, 41.0, -28.0, 0
26610, -1.0092773, 0.68774414, 0.09729004, -34.851074, 26.06201, -54.809566, 24.0, 41.0, -28.0, 0
26627, -0.9906006, 0.6866455, 0.064331055, -17.150879, 26.489256, -65.85693, 24.0, 41.0, -28.0, 0
26645, -0.9746094, 0.6680908, 0.017578125, 0.30517578, 29.357908, -79.956055, 26.0, 40.0, -25.0, 0
26669, -0.9592285, 0.6505127, -0.008422852, 13.305663, 33.5083, -95.45898, 26.0, 40.0, -25.0, 0
26687, -0.9395752, 0.6328125, -0.01940918, 21.240232, 36.865234, -106.201164, 26.0, 40.0, -25.0, 0
26709, -0.94836426, 0.6484375, -0.036254883, 19.958496, 38.879395, -115.53954, 26.0, 40.0, -25.0, 0
26726, -0.9425049, 0.68811035, -0.04272461, 12.268065, 39.855957, -123.65722, 26.0, 40.0, -25.0, 0
26743, -0.97875977, 0.66296387, -0.04345703, 9.216309, 41.625973, -130.3711, 37.0, 35.0, -27.0, 0
26764, -0.98742676, 0.6668701, -0.043823242, 6.2255855, 41.442867, -131.40869, 37.0, 35.0, -27.0, 0
26782, -1.0058594, 0.73413086, -0.0625, 6.04248, 38.146973, -136.59668, 37.0, 35.0, -27.0, 0
26808, -1.0234375, 0.7799072, -0.06542969, 13.916015, 33.14209, -137.93945, 37.0, 35.0, -27.0, 0
26828, -1.0198975, 0.76867676, -0.06201172, 23.193357, 29.418943, -139.52637, 37.0, 35.0, -27.0, 0
26845, -1.0007324, 0.73828125, -0.068603516, 31.494139, 27.343748, -137.39014, 48.0, 32.0, -17.0, 0
26866, -0.97766113, 0.7044678, -0.07141113, 33.691406, 27.038572, -137.20703, 48.0, 32.0, -17.0, 0
26884, -0.95910645, 0.66625977, -0.05505371, 32.165527, 28.07617, -141.23535, 48.0, 32.0, -17.0, 0
26902, -0.93408203, 0.6376953, -0.028686523, 30.273436, 28.44238, -145.26367, 48.0, 32.0, -17.0, 0
26924, -0.9334717, 0.6184082, -0.017333984, 29.418943, 28.686522, -146.78955, 48.0, 32.0, -17.0, 0
26941, -0.94592285, 0.60583496, -0.021240234, 22.27783, 26.855467, -148.07129, 50.0, 23.0, -17.0, 0
26965, -0.9550781, 0.57421875, -0.009887695, 18.859863, 25.207518, -146.60645, 50.0, 23.0, -17.0, 0
26983, -0.91516113, 0.5562744, 0.017822266, 12.512206, 21.362303, -137.26807, 50.0, 23.0, -17.0, 0
27001, -0.88708496, 0.5550537, 0.022338867, 10.742187, 17.333984, -121.33788, 50.0, 23.0, -17.0, 0
27023, -0.85180664, 0.53808594, -0.005493164, 12.268065, 13.549804, -106.445305, 50.0, 23.0, -17.0, 0
27040, -0.8625488, 0.515625, -0.009887695, 12.573241, 10.009766, -92.77343, 50.0, 23.0, -17.0, 0
27058, -0.85998535, 0.48059082, -0.0028076172, 10.437011, 5.004883, -78.73535, 53.0, 13.0, -16.0, 0
27081, -0.81921387, 0.4942627, 0.0052490234, 10.742187, -2.319336, -65.49072, 53.0, 13.0, -16.0, 0
27098, -0.7972412, 0.5090332, 0.012573242, 16.784668, -10.0708, -48.70605, 53.0, 13.0, -16.0, 0
27119, -0.7935791, 0.4781494, 0.01574707, 22.888182, -16.967773, -30.944822, 53.0, 13.0, -16.0, 0
27137, -0.7758789, 0.4354248, 0.012207031, 23.986814, -21.972654, -15.99121, 53.0, 13.0, -16.0, 0
27178, -0.6192627, 0.46276855, -0.026489258, 20.812986, -35.583496, 18.310547, 55.0, 13.0, -14.0, 0
27155, -0.7192383, 0.44433594, -7.324219E-4, 21.545408, -27.770994, 0.061035153, 55.0, 13.0, -14.0, 0
27196, -0.5202637, 0.4104004, -0.06311035, 20.26367, -42.480465, 38.146973, 55.0, 13.0, -14.0, 0
27218, -0.50671387, 0.35095215, -0.088012695, 13.793944, -43.762203, 50.72021, 55.0, 13.0, -14.0, 0
27235, -0.5695801, 0.3392334, -0.07299805, 2.1362305, -42.114254, 50.903316, 55.0, 13.0, -14.0, 0
27253, -0.63513184, 0.36730957, -0.055541992, -8.483887, -43.273922, 50.659176, 55.0, 15.0, -17.0, 0
27276, -0.67663574, 0.41394043, -0.041503906, -11.535644, -44.860836, 53.466793, 55.0, 15.0, -17.0, 0
27293, -0.7233887, 0.43029785, -0.03869629, -10.681151, -50.903316, 69.70215, 55.0, 15.0, -17.0, 0
27315, -0.8054199, 0.4390869, -0.052612305, -9.216309, -52.917477, 75.37842, 55.0, 15.0, -17.0, 0
27333, -0.87841797, 0.4494629, -0.049194336, -5.0659175, -55.847164, 85.93749, 55.0, 15.0, -17.0, 0
27391, -0.88500977, 0.48632812, -0.009277344, 10.925292, -63.537594, 130.00488, 53.0, 19.0, -21.0, 0
27412, -0.8835449, 0.4847412, -0.012084961, 12.634276, -63.781734, 144.28711, 53.0, 19.0, -21.0, 0
27430, -0.91259766, 0.48901367, -0.024047852, 5.187988, -63.049313, 154.78516, 53.0, 19.0, -21.0, 0
27448, -0.9571533, 0.51379395, -0.044311523, -6.9580073, -62.133785, 160.70555, 47.0, 27.0, -24.0, 0
27488, -1.029541, 0.5708008, -0.0014648438, -14.953612, -60.485836, 171.56981, 47.0, 27.0, -24.0, 0
27508, -1.026001, 0.6434326, -0.0041503906, -15.624999, -55.603024, 182.43407, 47.0, 27.0, -24.0, 0
27526, -1.0582275, 0.63500977, -0.010620117, -10.0708, -54.443356, 179.32127, 47.0, 27.0, -24.0, 0
27544, -1.0909424, 0.64453125, -0.02355957, 11.169433, -58.53271, 158.14209, 40.0, 34.0, -26.0, 0
27569, -1.1256104, 0.6422119, -0.026000977, 7.8735347, -53.52783, 153.32031, 40.0, 34.0, -26.0, 0
27587, -1.069458, 0.6849365, -0.028686523, 2.807617, -48.82812, 154.23584, 40.0, 34.0, -26.0, 0
27609, -1.0549316, 0.633667, -0.03930664, 0.9155273, -46.142574, 146.85059, 40.0, 34.0, -26.0, 0
27626, -1.020752, 0.6861572, -0.043701172, 0.061035153, -41.564938, 138.97705, 40.0, 34.0, -26.0, 0
27644, -0.9986572, 0.79589844, -0.038208008, 31.98242, -46.20361, 119.26269, 30.0, 33.0, -24.0, 0
27667, -1.0620117, 0.78808594, -0.04638672, 45.288082, -43.884274, 101.98974, 30.0, 33.0, -24.0, 0
27684, -1.0460205, 0.79956055, -0.026000977, 34.729004, -32.89795, 114.0747, 30.0, 33.0, -24.0, 0
27705, -1.0025635, 0.7232666, -0.017211914, 30.761717, -26.794432, 112.42675, 30.0, 33.0, -24.0, 0
27722, -0.9888916, 0.7064209, -0.010009766, 17.39502, -10.498046, 98.754875, 30.0, 33.0, -24.0, 0
27740, -0.9725342, 0.7147217, -0.010009766, 15.380858, -7.93457, 81.97021, 30.0, 33.0, -24.0, 0
27761, -0.9942627, 0.7595215, -0.003540039, 15.8081045, -7.8124995, 50.72021, 29.0, 36.0, -31.0, 0
27780, -0.96655273, 0.7824707, 0.0068359375, 14.770507, -1.7089843, 34.851074, 29.0, 36.0, -31.0, 0
27803, -1.0244141, 0.7208252, 0.0064697266, -8.544922, 11.1083975, 16.662598, 29.0, 36.0, -31.0, 0
27820, -1.0963135, 0.7182617, 0.022583008, -49.804684, 20.751951, -13.793944, 29.0, 36.0, -31.0, 0
27838, -1.039917, 0.77197266, 0.052368164, -78.67432, 29.418943, -36.743164, 29.0, 36.0, -31.0, 0
27859, -0.90185547, 0.77783203, 0.06359863, -72.509766, 30.273436, -46.874996, 29.0, 38.0, -26.0, 0
27878, -0.84375, 0.63916016, 0.027709961, -60.18066, 34.851074, -70.251465, 29.0, 38.0, -26.0, 0
27900, -0.91918945, 0.5443115, -0.01550293, -85.69335, 49.926754, -94.482414, 29.0, 38.0, -26.0, 0
27918, -1.0084229, 0.569458, -0.028198242, -119.75097, 59.93652, -115.78368, 29.0, 38.0, -26.0, 0
27940, -1.0668945, 0.63220215, 0.018188477, -150.14648, 59.326168, -137.26807, 29.0, 34.0, -32.0, 0
27966, -1.1816406, 0.59472656, 0.012084961, -162.84178, 56.39648, -152.28271, 29.0, 34.0, -32.0, 0
28026, -1.3482666, 0.6781006, -0.06530762, -112.18261, 32.714844, -181.76268, 29.0, 34.0, -32.0, 0
28044, -1.3527832, 0.74572754, -0.064697266, -74.279785, 22.216795, -187.25584, 31.0, 32.0, -31.0, 0
28102, -1.3343506, 0.5410156, -0.022216797, 3.8452146, 15.8081045, -201.90428, 31.0, 32.0, -31.0, 0
28138, -1.2109375, 0.5008545, -0.005859375, 26.611326, 18.859863, -211.60887, 31.0, 32.0, -31.0, 0
28155, -1.149292, 0.48718262, 0.0073242188, 32.165527, 18.798828, -210.81541, 42.0, 28.0, -33.0, 0
28195, -1.036377, 0.40649414, 0.020874023, 53.283688, 20.1416, -203.30809, 42.0, 28.0, -33.0, 0
28252, -0.8815918, 0.37426758, 0.036376953, 63.59863, 19.470215, -172.85155, 55.0, 18.0, -26.0, 0
28284, -0.8000488, 0.30065918, 0.021972656, 52.73437, 25.756834, -132.9956, 55.0, 18.0, -26.0, 0
28302, -0.79626465, 0.28308105, 0.016967773, 38.146973, 29.84619, -108.825676, 55.0, 18.0, -26.0, 0
28320, -0.7661133, 0.25964355, 0.024047852, 24.108885, 30.761717, -87.280266, 55.0, 18.0, -26.0, 0
28341, -0.71520996, 0.2376709, 0.03564453, 15.747069, 26.42822, -70.251465, 55.0, 18.0, -26.0, 0
28359, -0.6781006, 0.25219727, 0.03857422, 13.183593, 17.150879, -59.753414, 57.0, 9.0, -22.0, 0
28381, -0.6777344, 0.29919434, 0.022827148, 14.953612, 8.911133, -41.748043, 57.0, 9.0, -22.0, 0
28399, -0.6430664, 0.30737305, -0.0029296875, 15.136718, 2.1972656, -19.104004, 57.0, 9.0, -22.0, 0
28417, -0.633667, 0.30847168, -0.01171875, 10.742187, -4.1503906, 3.2958982, 57.0, 9.0, -22.0, 0
28437, -0.6894531, 0.328125, -0.017333984, 7.8735347, -7.3242183, 15.624999, 57.0, 9.0, -22.0, 0
28454, -0.7615967, 0.37976074, -0.024780273, 2.7465818, -19.77539, 53.161617, 57.0, 12.0, -23.0, 0
28476, -0.80200195, 0.421875, -0.016479492, 2.1362305, -24.475096, 65.42969, 57.0, 12.0, -23.0, 0
28494, -0.77111816, 0.48217773, -0.045288086, -3.0517576, -41.992184, 101.80663, 57.0, 12.0, -23.0, 0
28512, -0.7487793, 0.51501465, -0.07116699, -4.333496, -47.97363, 112.365715, 57.0, 12.0, -23.0, 0
28534, -0.71569824, 0.5371094, -0.10510254, -3.2958982, -56.51855, 132.69043, 57.0, 12.0, -23.0, 0
28551, -0.736084, 0.5036621, -0.095825195, -1.0986328, -57.739254, 150.20752, 57.0, 18.0, -24.0, 0
28573, -0.8302002, 0.46813965, -0.08203125, -2.6245115, -55.114742, 158.08105, 57.0, 18.0, -24.0, 0
28591, -0.9190674, 0.49560547, -0.08886719, -7.0190425, -54.13818, 150.63477, 57.0, 18.0, -24.0, 0
28689, -1.2393799, 0.5736084, -0.023925781, -15.0146475, -46.020504, 172.11913, 48.0, 25.0, -31.0, 0
28671, -1.2150879, 0.55041504, -0.026000977, -5.981445, -48.46191, 167.23631, 48.0, 25.0, -31.0, 0
28650, -1.1385498, 0.5656738, -0.030639648, 0.122070305, -51.208492, 162.59764, 48.0, 25.0, -31.0, 0
28707, -1.2154541, 0.6151123, -0.009887695, -16.296387, -45.776363, 182.25096, 48.0, 25.0, -31.0, 0
28727, -1.2089844, 0.6348877, 0.0423584, -14.282226, -45.776363, 186.58446, 48.0, 25.0, -31.0, 0
28745, -1.1293945, 0.7147217, 0.1295166, -15.563964, -35.27832, 220.58104, 40.0, 34.0, -29.0, 0
28768, -1.2022705, 0.5958252, 0.09729004, -10.253905, -24.41406, 187.0117, 40.0, 34.0, -29.0, 0
28786, -1.192627, 0.66259766, -0.037231445, -26.06201, -23.92578, 171.3867, 40.0, 34.0, -29.0, 0
28804, -1.1467285, 0.70532227, -0.09301758, -68.481445, -3.4179685, 171.44774, 40.0, 34.0, -29.0, 0
28842, -1.0388184, 0.6220703, -0.042114258, -47.0581, -5.737304, 116.149895, 40.0, 34.0, -29.0, 0
28860, -1.0371094, 0.7911377, -0.04650879, -67.81006, 24.597166, 119.56786, 28.0, 34.0, -36.0, 0
28886, -0.9654541, 0.74768066, -0.05432129, -50.10986, 30.822752, 120.544426, 28.0, 34.0, -36.0, 0
28904, -0.89941406, 0.8100586, -0.0592041, -3.1127927, 18.981934, 95.76415, 28.0, 34.0, -36.0, 0
28926, -0.83898926, 0.82666016, -0.0736084, 22.766111, 6.347656, 92.77343, 28.0, 34.0, -36.0, 0
28944, -0.8305664, 0.74560547, -0.09082031, 48.645016, -1.5258788, 78.79639, 21.0, 37.0, -29.0, 0
28966, -0.76660156, 0.72717285, -0.12792969, 48.82812, -6.04248, 77.697754, 21.0, 37.0, -29.0, 0
28984, -0.7322998, 0.7579346, -0.14501953, 48.58398, -7.995605, 63.049313, 21.0, 37.0, -29.0, 0
29002, -0.6861572, 0.84155273, -0.13378906, 75.805664, -17.51709, 57.861324, 21.0, 37.0, -29.0, 0
29023, -0.7150879, 0.78234863, -0.13647461, 93.99413, -29.296873, 42.41943, 21.0, 37.0, -29.0, 0
29040, -0.8034668, 0.7038574, -0.15466309, 54.687496, -16.296387, 31.188963, 21.0, 37.0, -29.0, 0
29058, -0.85839844, 0.74694824, -0.10998535, 20.080564, -9.338379, 14.770507, 28.0, 39.0, -33.0, 0
29081, -0.91064453, 0.79992676, -0.036987305, 20.996092, -17.63916, -9.155273, 28.0, 39.0, -33.0, 0
29098, -0.9803467, 0.7788086, 0.006225586, 25.634764, -18.920898, -26.550291, 28.0, 39.0, -33.0, 0
29138, -1.1124268, 0.6958008, -0.035888672, -11.1083975, 5.981445, -70.67871, 28.0, 39.0, -33.0, 0
29156, -1.1224365, 0.7878418, -0.010864258, -23.742674, 10.437011, -88.50097, 28.0, 40.0, -32.0, 0
29181, -1.0644531, 0.7919922, 0.041992188, -14.038085, 12.573241, -102.539055, 28.0, 40.0, -32.0, 0
29257, -1.3190918, 0.5834961, 0.026733398, -70.92285, 51.940914, -170.41014, 35.0, 36.0, -32.0, 0
29352, -1.4758301, 0.6213379, 0.038085938, -18.615723, 31.921385, -185.48582, 43.0, 31.0, -30.0, 0
29370, -1.4598389, 0.5760498, 0.0357666, 6.5917964, 34.179688, -190.79588, 43.0, 31.0, -30.0, 0
29391, -1.4157715, 0.56396484, 0.0032958984, 9.033203, 36.621094, -189.75829, 43.0, 31.0, -30.0, 0
29447, -1.1130371, 0.4897461, -0.033691406, 2.4414062, 43.15185, -186.03514, 51.0, 26.0, -25.0, 0
29791, -0.67822266, 0.55944824, 6.1035156E-4, 18.127441, -32.714844, 76.293945, 59.0, 9.0, -25.0, 0
29812, -0.7233887, 0.56481934, 0.037597656, 46.508785, -52.73437, 101.50146, 59.0, 9.0, -25.0, 0
29851, -0.5933838, 0.59484863, -0.068359375, 63.781734, -87.158195, 128.23486, 57.0, 17.0, -24.0, 0
29908, -0.82336426, 0.53149414, -0.0041503906, 25.81787, -80.44433, 151.85547, 57.0, 17.0, -24.0, 0
29958, -0.9741211, 0.6912842, 0.079589844, 30.456541, -79.10156, 142.51709, 55.0, 21.0, -22.0, 0
30085, -1.0351562, 0.73779297, 0.12097168, 113.83056, -84.0454, 191.5283, 50.0, 28.0, -26.0, 0
30141, -1.0637207, 0.4906006, 0.06970215, 84.41161, -82.641594, 150.63477, 50.0, 28.0, -26.0, 0
30394, -0.9373779, 0.6746826, 0.032836914, -34.240723, -6.1645503, 25.024412, 38.0, 38.0, -28.0, 0
30426, -0.92663574, 0.76220703, 0.0030517578, -37.78076, 9.460449, 35.949707, 38.0, 38.0, -28.0, 0
30443, -0.9400635, 0.75183105, 0.018310547, -3.234863, 8.178711, 16.052246, 38.0, 38.0, -28.0, 0
30460, -1.1237793, 0.62683105, 0.010375977, -12.268065, 16.235352, -13.427733, 36.0, 38.0, -32.0, 0
30481, -1.1639404, 0.6846924, 0.037963867, -40.16113, 24.04785, -32.470703, 36.0, 38.0, -32.0, 0
30498, -1.1262207, 0.689209, 0.06298828, -41.748043, 25.085447, -48.21777, 36.0, 38.0, -32.0, 0
30516, -1.0325928, 0.6452637, 0.06958008, -32.53174, 28.32031, -58.593746, 36.0, 38.0, -32.0, 0
30540, -0.907959, 0.5460205, 0.029052734, -26.18408, 31.98242, -67.62695, 36.0, 38.0, -32.0, 0
30558, -0.87927246, 0.38232422, -0.04724121, -14.282226, 41.80908, -94.848625, 38.0, 38.0, -26.0, 0
30581, -0.9161377, 0.39990234, -0.07751465, -21.728514, 55.66406, -121.03271, 38.0, 38.0, -26.0, 0
30656, -1.3099365, 0.5311279, 0.10437012, -67.32178, 58.65478, -135.31494, 39.0, 34.0, -29.0, 0
30717, -1.4157715, 0.5722656, 0.083618164, -88.928215, 51.513668, -143.00537, 39.0, 34.0, -29.0, 0
30734, -1.3415527, 0.58654785, 0.032592773, -73.85254, 52.24609, -152.28271, 39.0, 34.0, -29.0, 0
30751, -1.2631836, 0.6237793, 0.009033203, -44.982906, 51.87988, -158.93555, 46.0, 34.0, -31.0, 0
30772, -1.2105713, 0.5864258, 0.014282227, -19.592285, 52.429195, -165.6494, 46.0, 34.0, -31.0, 0
30790, -1.1607666, 0.5430908, 0.036621094, -10.31494, 52.673336, -170.53221, 46.0, 34.0, -31.0, 0
30848, -0.98864746, 0.4210205, 0.09753418, 26.245115, 52.917477, -179.62645, 50.0, 21.0, -27.0, 0
30870, -0.9263916, 0.40063477, 0.10119629, 27.038572, 52.36816, -176.7578, 50.0, 21.0, -27.0, 0
30888, -0.87683105, 0.38720703, 0.099487305, 23.864744, 50.537106, -170.28807, 50.0, 21.0, -27.0, 0
30928, -0.7911377, 0.31652832, 0.11254883, 13.8549795, 52.73437, -139.46533, 50.0, 21.0, -27.0, 0
31353, -1.1030273, 0.7788086, 0.03100586, -61.82861, -22.705076, 162.04832, 49.0, 30.0, -25.0, 0
31372, -1.0561523, 0.7609863, 0.01159668, -53.6499, -23.986814, 182.55614, 49.0, 30.0, -25.0, 0
31410, -0.947876, 0.7233887, 0.0018310547, -42.66357, -23.559568, 190.91795, 49.0, 30.0, -25.0, 0
31464, -0.9857178, 0.7783203, 0.015258789, -72.143555, -20.62988, 168.45702, 38.0, 36.0, -29.0, 0
31645, -0.74072266, 0.7158203, -0.10205078, -122.74169, 24.963377, 26.916502, 23.0, 36.0, -32.0, 0
31686, -0.75598145, 0.6287842, -0.060302734, -173.95018, 38.94043, 31.98242, 13.0, 36.0, -30.0, 0
31742, -0.9892578, 0.3642578, 0.044189453, -244.56786, 42.724606, 21.423338, 13.0, 36.0, -30.0, 0
31759, -1.0010986, 0.5415039, 0.06323242, -282.1045, 39.55078, 10.253905, 3.0, 40.0, -29.0, 0
31799, -0.9733887, 0.42199707, 0.19995117, -270.20264, 20.996092, 0.97656244, 3.0, 40.0, -29.0, 0
31906, -1.107544, 0.38598633, 0.46228027, -143.24951, 0.793457, -51.025387, -5.0, 43.0, -16.0, 0
32181, -1.0905762, 0.5274658, 0.5058594, -83.80126, 37.231445, -110.53466, 11.0, 50.0, -2.0, 0
32200, -1.1118164, 0.48840332, 0.47717285, -72.509766, 37.841797, -117.18749, 11.0, 50.0, -2.0, 0
32240, -1.1350098, 0.5102539, 0.40686035, -67.62695, 46.020504, -126.4038, 11.0, 50.0, -2.0, 0
32274, -1.1046143, 0.50805664, 0.36315918, -43.212887, 55.480953, -128.84521, 23.0, 50.0, 1.0, 0
32294, -1.0755615, 0.45825195, 0.31884766, -30.517576, 62.31689, -130.79834, 23.0, 50.0, 1.0, 0
32316, -1.0439453, 0.43896484, 0.2672119, -20.38574, 69.39697, -132.69043, 23.0, 50.0, 1.0, 0
32416, -0.91711426, 0.38061523, 0.13549805, -21.179197, 74.21875, -104.187004, 35.0, 43.0, 8.0, 0
32521, -0.67993164, 0.44055176, -0.026123047, -20.690916, 45.288082, -25.93994, 38.0, 40.0, 17.0, 0
32542, -0.70825195, 0.40698242, -0.03125, -18.005371, 43.02978, -10.19287, 38.0, 40.0, 17.0, 0
32560, -0.72387695, 0.38256836, -0.045532227, -20.50781, 42.846676, -0.97656244, 44.0, 38.0, 13.0, 0
32622, -0.59802246, 0.51464844, -0.08703613, -31.188963, 31.799314, 22.52197, 44.0, 38.0, 13.0, 0
32672, -0.7126465, 0.42297363, -0.0579834, -16.113281, 24.16992, 45.654293, 41.0, 40.0, 14.0, 0
32691, -0.7687988, 0.47314453, -0.07495117, -23.742674, 21.423338, 50.96435, 41.0, 40.0, 14.0, 0
32709, -0.7836914, 0.5140381, -0.087402344, -23.620604, 18.859863, 54.50439, 41.0, 40.0, 14.0, 0
32729, -0.7944336, 0.5751953, -0.096191406, -20.996092, 11.596679, 68.78662, 41.0, 40.0, 14.0, 0
32747, -0.78930664, 0.5905762, -0.09289551, -18.127441, 4.1503906, 85.266106, 41.0, 40.0, 14.0, 0
32768, -0.77856445, 0.57055664, -0.1184082, -20.324705, -0.18310545, 97.96142, 40.0, 45.0, 11.0, 0
32787, -0.78015137, 0.55578613, -0.14880371, -27.587889, -1.0986328, 108.337395, 40.0, 45.0, 11.0, 0
32843, -0.7836914, 0.6008301, -0.19763184, -41.13769, -1.8310546, 136.96289, 40.0, 45.0, 11.0, 0
32911, -0.93896484, 0.5548096, -0.037841797, 7.263183, -22.460936, 133.8501, 31.0, 50.0, 13.0, 0
32950, -0.99658203, 0.5621338, -0.16333008, -14.465331, -25.207518, 138.06152, 31.0, 50.0, 13.0, 0
32971, -1.0323486, 0.5407715, -0.20568848, -49.62158, -16.479492, 117.98095, 22.0, 50.0, 14.0, 0
32990, -0.9584961, 0.62927246, -0.1262207, -76.72119, -14.465331, 107.66601, 22.0, 50.0, 14.0, 0
33595, -1.1624756, 0.56933594, -0.010131836, -42.602535, 0.5493164, -107.60497, 33.0, 52.0, 17.0, 0
33048, -0.9361572, 0.578125, -0.0748291, -56.213375, -12.08496, 111.02294, 22.0, 50.0, 14.0, 0
33631, -1.0183105, 0.4967041, 0.003540039, 7.3242183, -0.18310545, -122.00927, 33.0, 52.0, 17.0, 0
33665, -0.96936035, 0.4366455, -0.0072021484, 41.687008, 4.699707, -132.01904, 43.0, 44.0, 19.0, 0
33725, -0.8762207, 0.3741455, 0.012084961, 42.602535, 11.230468, -130.7373, 43.0, 44.0, 19.0, 0
33886, -0.8343506, 0.41662598, -0.011352539, -11.352538, 14.709472, -52.917477, 51.0, 32.0, 24.0, 0
33904, -0.8592529, 0.43981934, -0.025634766, -5.676269, 12.451171, -37.53662, 51.0, 32.0, 24.0, 0
33922, -0.87646484, 0.45300293, -0.04675293, -1.2817382, 8.911133, -19.958496, 51.0, 32.0, 24.0, 0
33941, -0.88061523, 0.4654541, -0.061157227, -0.061035153, 6.5307612, -11.96289, 51.0, 32.0, 24.0, 0
33959, -0.916626, 0.49890137, -0.08728027, 2.5634763, 1.4038085, 4.272461, 51.0, 30.0, 25.0, 0
33983, -0.9893799, 0.53967285, -0.087402344, 7.7514644, -4.8217773, 23.986814, 51.0, 30.0, 25.0, 0
34000, -0.986084, 0.5522461, -0.0859375, 15.258788, -13.122558, 48.522945, 51.0, 30.0, 25.0, 0
34017, -0.90393066, 0.5777588, -0.103393555, 19.714355, -24.108885, 72.631836, 51.0, 30.0, 25.0, 0
34035, -0.75439453, 0.5938721, -0.1484375, 22.094725, -36.193848, 91.00341, 51.0, 30.0, 25.0, 0
34057, -0.635376, 0.58691406, -0.18823242, 25.024412, -43.334957, 105.83495, 47.0, 35.0, 26.0, 0
34115, -0.6500244, 0.36193848, -0.11987305, 28.259275, -36.376953, 112.365715, 47.0, 35.0, 26.0, 0
34131, -0.6883545, 0.33825684, -0.11804199, 7.995605, -23.986814, 87.3413, 47.0, 35.0, 26.0, 0
34153, -0.829834, 0.35009766, -0.09313965, -0.42724606, -19.53125, 79.833984, 44.0, 40.0, 20.0, 0
34213, -1.0656738, 0.52697754, -0.044921875, -23.010252, -8.666992, 72.93701, 44.0, 40.0, 20.0, 0
34230, -1.0908203, 0.5402832, -0.056030273, -20.751951, -6.103515, 83.67919, 44.0, 40.0, 20.0, 0
34248, -1.005127, 0.70532227, -0.05883789, -2.7465818, -1.2817382, 135.00977, 44.0, 40.0, 20.0, 0
34269, -0.9439697, 0.61450195, -0.053710938, 47.546383, -25.085447, 113.40331, 34.0, 45.0, 22.0, 0
34289, -0.9349365, 0.5218506, -0.11755371, 44.860836, -28.808592, 100.15868, 34.0, 45.0, 22.0, 0
34311, -0.9140625, 0.60791016, -0.12207031, 34.240723, -14.343261, 136.16943, 34.0, 45.0, 22.0, 0
34329, -0.8643799, 0.49157715, -0.11584473, 32.53174, -7.995605, 133.30078, 34.0, 45.0, 22.0, 0
34347, -0.86499023, 0.4050293, -0.10644531, 14.22119, -8.728027, 103.027336, 34.0, 45.0, 22.0, 0
34368, -0.890625, 0.50561523, -0.083740234, -0.122070305, -7.263183, 95.1538, 28.0, 48.0, 16.0, 0
34388, -0.9074707, 0.54785156, -0.06933594, -7.0190425, -6.5307612, 99.79247, 28.0, 48.0, 16.0, 0
34410, -0.90148926, 0.51904297, -0.067993164, -23.986814, -7.5073237, 95.64208, 28.0, 48.0, 16.0, 0
34423, -0.8952637, 0.59521484, -0.0748291, -30.456541, -8.117676, 93.13964, 28.0, 48.0, 16.0, 0
34441, -0.8795166, 0.6452637, -0.078125, -27.282713, -8.239746, 92.468254, 28.0, 48.0, 16.0, 0
34459, -0.8613281, 0.6397705, -0.088256836, -16.906738, -9.521484, 92.956535, 21.0, 51.0, 21.0, 0
34479, -0.84350586, 0.6109619, -0.09509277, -10.559081, -12.756347, 93.38378, 21.0, 51.0, 21.0, 0
34497, -0.81640625, 0.62158203, -0.11364746, -4.3945312, -13.610839, 87.64648, 21.0, 51.0, 21.0, 0
34520, -0.8067627, 0.62841797, -0.1352539, -1.7089843, -12.023925, 78.85742, 21.0, 51.0, 21.0, 0
34537, -0.8154297, 0.63879395, -0.15075684, -3.7841794, -9.399414, 68.66455, 21.0, 51.0, 21.0, 0
34555, -0.83374023, 0.6730957, -0.15148926, -2.6245115, -9.58252, 58.1665, 11.0, 50.0, 17.0, 0
34575, -0.8522949, 0.6965332, -0.13879395, -0.42724606, -9.82666, 53.039547, 11.0, 50.0, 17.0, 0
34593, -0.90515137, 0.6861572, -0.12182617, -1.2817382, -7.93457, 36.987305, 11.0, 50.0, 17.0, 0
34616, -0.96813965, 0.6940918, -0.09680176, -4.0283203, -5.7983394, 31.73828, 11.0, 50.0, 17.0, 0
34633, -1.0524902, 0.7089844, -0.09008789, -4.0893555, -2.319336, 15.8081045, 11.0, 50.0, 17.0, 0
34650, -1.0827637, 0.70202637, -0.09509277, -0.7324218, -0.48828122, -3.1127927, 11.0, 50.0, 17.0, 0
34668, -1.0614014, 0.6882324, -0.09741211, 3.8452146, 4.272461, -12.634276, 11.0, 50.0, 19.0, 0
34691, -1.1169434, 0.6437988, -0.09289551, 17.578125, 4.272461, -30.944822, 11.0, 50.0, 19.0, 0
34709, -1.2199707, 0.5776367, -0.13769531, -7.7514644, 15.563964, -65.36865, 11.0, 50.0, 19.0, 0
34729, -1.1722412, 0.6973877, -0.12670898, -37.719727, 29.479979, -57.739254, 11.0, 50.0, 19.0, 0
34750, -0.97229004, 0.7149658, -0.08898926, -12.20703, 20.935057, -67.68799, 11.0, 50.0, 19.0, 0
34767, -0.8918457, 0.5878906, -0.07165527, 17.27295, 17.822266, -94.360344, 17.0, 46.0, 23.0, 0
34788, -0.9539795, 0.47509766, -0.07775879, 20.62988, 28.747557, -112.487785, 17.0, 46.0, 23.0, 0
34806, -1.0394287, 0.4630127, -0.08618164, 13.8549795, 38.146973, -135.19287, 17.0, 46.0, 23.0, 0
34829, -1.0953369, 0.515625, -0.06982422, 17.39502, 42.724606, -160.40039, 17.0, 46.0, 23.0, 0
34847, -1.1553955, 0.54541016, -0.045532227, 18.859863, 44.06738, -160.40039, 17.0, 46.0, 23.0, 0
34903, -1.1373291, 0.5891113, -0.018920898, 39.245605, 36.43799, -149.6582, 28.0, 44.0, 28.0, 0
35056, -0.8048096, 0.37976074, 0.02709961, 47.363277, 41.01562, -118.77441, 39.0, 31.0, 40.0, 0
35074, -0.7519531, 0.36328125, 0.033081055, 27.587889, 42.17529, -107.11669, 39.0, 31.0, 40.0, 0
35092, -0.7312012, 0.35864258, 0.032714844, 20.26367, 41.992184, -101.44042, 39.0, 31.0, 40.0, 0
35114, -0.66833496, 0.37512207, 0.02368164, 6.774902, 39.67285, -90.698235, 39.0, 31.0, 40.0, 0
35131, -0.645874, 0.37695312, 0.030151367, 0.9155273, 35.949707, -80.50536, 39.0, 31.0, 40.0, 0
35149, -0.5876465, 0.36071777, 0.041992188, -1.9531249, 32.104492, -67.0166, 39.0, 31.0, 40.0, 0
35174, -0.55529785, 0.35998535, 0.034301758, -5.7983394, 28.07617, -51.330563, 44.0, 21.0, 43.0, 0
35193, -0.56481934, 0.36279297, 0.022094727, -8.117676, 22.216795, -39.42871, 44.0, 21.0, 43.0, 0
35215, -0.62719727, 0.3708496, 0.018798828, -11.96289, 15.0146475, -30.2124, 44.0, 21.0, 43.0, 0
35231, -0.6612549, 0.3828125, 0.022338867, -16.357422, 6.2255855, -19.836426, 44.0, 21.0, 43.0, 0
35248, -0.71313477, 0.40795898, 0.04345703, -15.563964, -3.234863, -8.483887, 44.0, 21.0, 43.0, 0
35265, -0.7718506, 0.44909668, 0.060180664, -13.244628, -12.634276, 3.7841794, 44.0, 20.0, 43.0, 0
35287, -0.8532715, 0.4909668, 0.052490234, -15.502929, -21.789549, 17.578125, 44.0, 20.0, 43.0, 0
35326, -1.0042725, 0.54626465, -0.010253906, -22.827147, -35.339355, 45.71533, 44.0, 20.0, 43.0, 0
35343, -1.0913086, 0.5510254, -0.0025634766, -21.057127, -45.95947, 72.20459, 44.0, 20.0, 43.0, 0
35363, -1.2779541, 0.6121826, 0.046020508, -21.789549, -50.72021, 79.89502, 48.0, 27.0, 34.0, 0
35385, -1.1845703, 0.69958496, 0.032348633, -26.123045, -63.537594, 94.848625, 48.0, 27.0, 34.0, 0
35420, -0.88513184, 0.7557373, -0.03515625, -8.483887, -87.09716, 135.2539, 48.0, 27.0, 34.0, 0
35441, -0.758667, 0.6525879, -0.06945801, 9.094238, -84.655754, 148.01025, 48.0, 27.0, 34.0, 0
35459, -0.7167969, 0.5001221, -0.079833984, 17.700195, -71.71631, 140.13672, 40.0, 37.0, 34.0, 0
35482, -0.7800293, 0.38952637, -0.095825195, 8.850098, -57.80029, 117.3706, 40.0, 37.0, 34.0, 0
35497, -0.87597656, 0.38049316, -0.10583496, -13.488769, -46.56982, 91.91894, 40.0, 37.0, 34.0, 0
35514, -0.9493408, 0.44348145, -0.08129883, -33.081055, -36.92627, 77.45361, 40.0, 37.0, 34.0, 0
35535, -1.0323486, 0.5213623, -0.044799805, -43.273922, -27.465818, 83.8623, 40.0, 37.0, 34.0, 0
35555, -1.0311279, 0.61035156, -0.012084961, -37.841797, -19.592285, 100.21972, 36.0, 42.0, 31.0, 0
35578, -1.0743408, 0.5325928, 0.051757812, -1.0375977, -41.198727, 60.241695, 36.0, 42.0, 31.0, 0
35596, -1.1295166, 0.60009766, 0.009765625, 4.638672, -49.804684, 58.53271, 36.0, 42.0, 31.0, 0
35614, -1.0826416, 0.7380371, -0.030761719, 5.0659175, -41.503902, 126.4038, 36.0, 42.0, 31.0, 0
35635, -1.0301514, 0.60131836, -0.060302734, 17.700195, -44.92187, 127.624504, 36.0, 42.0, 31.0, 0
35654, -1.0130615, 0.50549316, -0.07287598, 9.70459, -45.227047, 97.16796, 27.0, 44.0, 26.0, 0
35677, -0.883667, 0.5270996, -0.051879883, 0.7324218, -40.832516, 99.85351, 27.0, 44.0, 26.0, 0
35692, -0.833374, 0.55029297, -0.047851562, 13.0615225, -46.874996, 80.81054, 27.0, 44.0, 26.0, 0
35710, -0.83618164, 0.54418945, -0.08972168, 27.038572, -42.5415, 69.58008, 27.0, 44.0, 26.0, 0
35735, -0.7590332, 0.45422363, -0.07458496, 15.502929, -33.75244, 93.13964, 27.0, 44.0, 26.0, 0
35753, -0.734375, 0.44433594, -0.06921387, -7.690429, -28.808592, 63.35449, 22.0, 45.0, 21.0, 0
35776, -0.7420654, 0.57958984, -0.064575195, -7.3852534, -27.648924, 61.218258, 22.0, 45.0, 21.0, 0
35810, -0.7640381, 0.5432129, -0.05114746, -8.056641, -17.76123, 63.781734, 22.0, 45.0, 21.0, 0
35908, -0.7015381, 0.59973145, -0.11853027, 9.216309, -8.239746, 55.78613, 17.0, 47.0, 21.0, 0
35938, -0.71533203, 0.62158203, -0.11193848, 7.263183, -4.5166016, 49.560543, 17.0, 47.0, 21.0, 0
35956, -0.7167969, 0.65527344, -0.09350586, 15.8081045, -5.737304, 47.119137, 16.0, 48.0, 19.0, 0
35976, -0.79992676, 0.60461426, -0.1472168, 21.728514, -6.7138667, 12.634276, 16.0, 48.0, 19.0, 0
35997, -0.91711426, 0.7062988, -0.2454834, 9.521484, -0.18310545, 11.9018545, 16.0, 48.0, 19.0, 0
36014, -0.98950195, 0.7381592, -0.2906494, 7.93457, -0.9155273, -2.5024414, 16.0, 48.0, 19.0, 0
36035, -1.0922852, 0.5810547, -0.19152832, 15.502929, -2.9296873, -4.0893555, 16.0, 48.0, 19.0, 0
36053, -1.1098633, 0.5703125, -0.13305664, 28.137205, 2.4414062, -2.6855466, 16.0, 48.0, 19.0, 0
36071, -1.0837402, 0.58813477, -0.099243164, 22.949217, 16.662598, -21.545408, 14.0, 46.0, 20.0, 0
36092, -1.1776123, 0.56018066, -0.13867188, -13.244628, 31.005857, -46.44775, 14.0, 46.0, 20.0, 0
36110, -1.2441406, 0.6873779, -0.14526367, -51.269527, 32.409668, -58.41064, 14.0, 46.0, 20.0, 0
36130, -1.1416016, 0.7922363, -0.11315918, -62.927242, 24.353025, -63.049313, 14.0, 46.0, 20.0, 0
36148, -0.9326172, 0.6833496, -0.05529785, -57.189938, 22.888182, -64.208984, 14.0, 46.0, 20.0, 0
36166, -0.82580566, 0.4597168, -0.013793945, -49.499508, 34.301758, -75.927734, 23.0, 45.0, 25.0, 0
36189, -0.8614502, 0.31323242, -0.052124023, -51.940914, 48.70605, -109.13085, 23.0, 45.0, 25.0, 0
36207, -0.98547363, 0.3482666, -0.12060547, -67.993164, 54.199215, -141.54053, 23.0, 45.0, 25.0, 0
36227, -1.0726318, 0.5007324, -0.14758301, -76.9043, 52.85644, -148.98682, 23.0, 45.0, 25.0, 0
36245, -1.1502686, 0.5946045, -0.12097168, -76.538086, 37.41455, -140.07568, 23.0, 45.0, 25.0, 0
36263, -1.175415, 0.6298828, -0.10083008, -67.38281, 30.273436, -133.8501, 27.0, 43.0, 20.0, 0
36286, -1.2686768, 0.6759033, -0.09008789, -44.55566, 16.235352, -128.96729, 27.0, 43.0, 20.0, 0
36304, -1.2628174, 0.6760254, -0.08959961, -19.77539, 4.0893555, -127.4414, 27.0, 43.0, 20.0, 0
36322, -1.2315674, 0.63671875, -0.09313965, 11.230468, -3.6621091, -125.79345, 27.0, 43.0, 20.0, 0
36340, -1.1721191, 0.5650635, -0.14099121, 41.25976, -5.5541987, -127.80761, 27.0, 43.0, 20.0, 0
36358, -1.1165771, 0.5422363, -0.24768066, 56.27441, -2.6855466, -136.96289, 41.0, 35.0, 23.0, 0
36379, -1.0577393, 0.55895996, -0.30725098, 56.579586, -0.3662109, -142.63916, 41.0, 35.0, 23.0, 0
36396, -1.0040283, 0.5616455, -0.26367188, 49.560543, 7.8124995, -152.64893, 41.0, 35.0, 23.0, 0
36420, -0.97143555, 0.53601074, -0.1809082, 45.349117, 12.023925, -151.48926, 41.0, 35.0, 23.0, 0
36438, -0.9449463, 0.5328369, -0.1459961, 42.66357, 12.20703, -149.90234, 41.0, 35.0, 23.0, 0
36456, -0.9211426, 0.51086426, -0.10949707, 37.65869, 10.253905, -147.09473, 40.0, 27.0, 20.0, 0
36478, -0.88500977, 0.46557617, -0.07678223, 38.208008, 9.70459, -144.28711, 40.0, 27.0, 20.0, 0
36495, -0.83239746, 0.4239502, -0.068481445, 38.81836, 10.620116, -134.64355, 40.0, 27.0, 20.0, 0
36518, -0.77770996, 0.4156494, -0.088378906, 35.705566, 10.681151, -130.67627, 40.0, 27.0, 20.0, 0
36536, -0.7089844, 0.42700195, -0.091552734, 27.9541, 10.620116, -121.39892, 40.0, 27.0, 20.0, 0
36554, -0.6677246, 0.42956543, -0.09020996, 24.963377, 10.009766, -111.20605, 40.0, 27.0, 20.0, 0
36573, -0.6168213, 0.42944336, -0.08642578, 27.038572, 7.8124995, -99.121086, 44.0, 24.0, 18.0, 0
36592, -0.6281738, 0.41931152, -0.07080078, 28.869627, 5.7983394, -84.96093, 44.0, 24.0, 18.0, 0
36608, -0.6677246, 0.41308594, -0.04309082, 29.113768, 4.0893555, -72.99805, 44.0, 24.0, 18.0, 0
36630, -0.6982422, 0.4267578, -0.0075683594, 31.372068, 0.7324218, -61.70654, 44.0, 24.0, 18.0, 0
36647, -0.6932373, 0.45788574, -0.0032958984, 37.963867, -5.3710933, -47.363277, 44.0, 24.0, 18.0, 0
36705, -0.703125, 0.49206543, -0.03515625, 42.78564, -22.460936, -3.601074, 51.0, 20.0, 25.0, 0
36727, -0.8018799, 0.49768066, -0.008178711, 35.339355, -26.367186, 13.916015, 51.0, 20.0, 25.0, 0
36745, -0.8400879, 0.5147705, 0.005493164, 28.07617, -31.677244, 34.179688, 51.0, 20.0, 25.0, 0
36763, -0.8709717, 0.57177734, 0.012451172, 24.475096, -40.77148, 54.992672, 48.0, 23.0, 24.0, 0
36784, -0.79748535, 0.63879395, -0.0073242188, 25.81787, -53.100582, 75.43945, 48.0, 23.0, 24.0, 0
36802, -0.67089844, 0.6578369, -0.037109375, 30.883787, -66.467285, 93.81103, 48.0, 23.0, 24.0, 0
36824, -0.56689453, 0.61206055, -0.0670166, 35.339355, -75.07324, 107.11669, 48.0, 23.0, 24.0, 0
36842, -0.53796387, 0.5563965, -0.07531738, 32.89795, -74.76807, 113.64745, 48.0, 23.0, 24.0, 0
36860, -0.59716797, 0.5147705, -0.046020508, 26.611326, -68.54248, 111.69433, 40.0, 33.0, 22.0, 0
36883, -0.6932373, 0.5144043, -0.030029297, 17.39502, -62.499996, 102.9663, 40.0, 33.0, 22.0, 0
36900, -0.7697754, 0.55236816, -0.016113281, 6.774902, -59.44824, 94.604485, 40.0, 33.0, 22.0, 0
36921, -0.83154297, 0.5961914, 0.0029296875, 0.97656244, -59.143063, 93.9331, 40.0, 33.0, 22.0, 0
36939, -0.91760254, 0.64245605, 0.026855469, 3.2958982, -60.05859, 99.97558, 40.0, 33.0, 22.0, 0
36957, -0.9970703, 0.6672363, 0.033691406, 10.620116, -62.43896, 108.39843, 34.0, 37.0, 19.0, 0
36980, -1.0235596, 0.6789551, 0.020996094, 17.944336, -65.00244, 117.797844, 34.0, 37.0, 19.0, 0
36998, -1.008667, 0.68969727, 0.005493164, 23.010252, -65.7959, 128.66211, 34.0, 37.0, 19.0, 0
37036, -0.92333984, 0.75024414, -0.0026855469, 59.082027, -60.18066, 172.18016, 34.0, 37.0, 19.0, 0
37054, -0.883667, 0.6220703, 0.040649414, 79.956055, -69.51904, 144.28711, 34.0, 37.0, 19.0, 0
37075, -0.91845703, 0.48498535, 0.030883789, 58.65478, -68.90869, 121.58202, 27.0, 42.0, 12.0, 0
37094, -0.9024658, 0.59033203, 0.05126953, 13.732909, -43.457027, 145.44678, 27.0, 42.0, 12.0, 0
37118, -0.890625, 0.57299805, 0.0637207, 13.427733, -47.485348, 133.11768, 27.0, 42.0, 12.0, 0
37136, -0.88098145, 0.6175537, 0.048706055, 7.3242183, -54.443356, 103.88183, 27.0, 42.0, 12.0, 0
37154, -0.94299316, 0.72509766, 0.07434082, 4.333496, -40.89355, 114.013664, 19.0, 46.0, 9.0, 0
37180, -0.9123535, 0.69970703, 0.080322266, 6.2866206, -38.085938, 110.65673, 19.0, 46.0, 9.0, 0
37237, -0.9210205, 0.6882324, 0.006225586, -14.831542, -31.188963, 81.90917, 19.0, 46.0, 9.0, 0
37254, -0.88720703, 0.68115234, 0.013061523, -18.188477, -22.460936, 82.27538, 19.0, 46.0, 9.0, 0
37272, -0.8312988, 0.67785645, 0.013549805, -12.695312, -20.935057, 73.54736, 13.0, 46.0, 11.0, 0
37293, -0.8442383, 0.70043945, -0.017700195, -8.728027, -17.51709, 62.377926, 13.0, 46.0, 11.0, 0
37312, -0.86743164, 0.7241211, -0.06213379, -10.986327, -11.840819, 59.082027, 13.0, 46.0, 11.0, 0
37334, -0.8782959, 0.7260742, -0.07080078, -12.023925, -9.277344, 52.49023, 13.0, 46.0, 11.0, 0
37352, -0.91345215, 0.7147217, -0.061401367, -11.779784, -7.0800776, 44.738766, 13.0, 46.0, 11.0, 0
37370, -0.989624, 0.69189453, -0.07434082, -17.089844, -2.0751953, 34.42383, 7.0, 47.0, 6.0, 0
37391, -1.0383301, 0.7441406, -0.07141113, -15.197753, 1.7700194, 24.108885, 7.0, 47.0, 6.0, 0
37410, -1.0026855, 0.782959, -0.047851562, 14.587401, -1.6479491, 9.277344, 7.0, 47.0, 6.0, 0
37432, -1.048584, 0.625, -0.064697266, 14.22119, 5.187988, -10.925292, 7.0, 47.0, 6.0, 0
37447, -1.1315918, 0.56921387, -0.10021973, -26.550291, 27.221678, -9.033203, 7.0, 47.0, 6.0, 0
37465, -1.1043701, 0.600708, -0.09436035, -36.56006, 30.2124, -15.686034, 11.0, 47.0, 7.0, 0
37487, -1.0302734, 0.66223145, -0.08105469, -23.559568, 23.254393, -54.74853, 11.0, 47.0, 7.0, 0
37508, -0.9185791, 0.611084, -0.04345703, -21.423338, 26.855467, -61.82861, 11.0, 47.0, 7.0, 0
37529, -0.814209, 0.46533203, -0.02368164, -26.672361, 31.188963, -66.65039, 11.0, 47.0, 7.0, 0
37544, -0.7813721, 0.42797852, -0.026611328, -42.480465, 39.123535, -77.0874, 11.0, 47.0, 7.0, 0
37562, -0.7611084, 0.43847656, -0.040283203, -44.372555, 44.006344, -99.36523, 13.0, 49.0, 14.0, 0
37584, -0.87402344, 0.41687012, -0.056640625, -73.42529, 53.6499, -113.891594, 13.0, 49.0, 14.0, 0
37605, -0.94750977, 0.4979248, -0.047851562, -87.402336, 55.053707, -115.41747, 13.0, 49.0, 14.0, 0
37626, -1.0349121, 0.6278076, -0.02758789, -99.24316, 50.537106, -112.854, 13.0, 49.0, 14.0, 0
37641, -1.1166992, 0.6887207, -0.022094727, -90.942375, 42.846676, -117.06542, 13.0, 49.0, 14.0, 0
37659, -1.2059326, 0.6702881, -0.006591797, -85.69335, 35.705566, -116.76025, 25.0, 41.0, 13.0, 0
37685, -1.2102051, 0.6431885, 0.0345459, -79.833984, 28.259275, -114.99023, 25.0, 41.0, 13.0, 0
37703, -1.1981201, 0.6218262, 0.040039062, -68.359375, 22.15576, -117.30956, 25.0, 41.0, 13.0, 0
37761, -1.091919, 0.5509033, -0.03125, -12.145995, 15.0146475, -140.01465, 39.0, 36.0, 14.0, 0
37782, -1.0460205, 0.51623535, -0.019165039, 5.310058, 16.052246, -146.24023, 39.0, 36.0, 14.0, 0
37823, -0.9576416, 0.43286133, 0.011352539, 23.071287, 17.944336, -147.76611, 39.0, 36.0, 14.0, 0
37840, -0.9082031, 0.45202637, -0.016113281, 24.41406, 15.136718, -149.84131, 39.0, 36.0, 14.0, 0
37858, -0.86987305, 0.4678955, -0.023803711, 27.709959, 12.390136, -147.27783, 43.0, 28.0, 17.0, 0
37881, -0.821167, 0.48266602, -0.012329102, 30.029295, 10.559081, -138.1836, 43.0, 28.0, 17.0, 0
37899, -0.77404785, 0.48291016, 8.544922E-4, 31.555174, 8.422852, -124.26757, 43.0, 28.0, 17.0, 0
37921, -0.7307129, 0.4498291, 0.008300781, 33.63037, 7.690429, -108.88671, 43.0, 28.0, 17.0, 0
37938, -0.696167, 0.41589355, -0.01574707, 31.98242, 7.3242183, -97.229, 43.0, 28.0, 17.0, 0
37956, -0.68981934, 0.4050293, -0.022583008, 27.893064, 7.0190425, -93.01757, 43.0, 28.0, 17.0, 0
37977, -0.70129395, 0.3843994, 3.6621094E-4, 14.22119, 5.187988, -83.80126, 47.0, 25.0, 15.0, 0
37996, -0.7310791, 0.39331055, 0.0126953125, 3.6621091, 2.9907224, -73.30322, 47.0, 25.0, 15.0, 0
38018, -0.7624512, 0.42456055, 0.043823242, 0.0, 2.1972656, -64.94141, 47.0, 25.0, 15.0, 0
38035, -0.7718506, 0.44519043, 0.048339844, 1.4038085, 1.4648436, -53.100582, 47.0, 25.0, 15.0, 0
38053, -0.76379395, 0.4534912, 0.025146484, 5.0659175, 0.48828122, -37.78076, 47.0, 25.0, 15.0, 0
38075, -0.73413086, 0.45361328, -0.022705078, 8.300781, -2.0751953, -23.620604, 47.0, 20.0, 13.0, 0
38094, -0.725708, 0.47302246, -0.046142578, 13.122558, -4.4555664, -10.437011, 47.0, 20.0, 13.0, 0
38116, -0.7437744, 0.4958496, -0.055908203, 21.179197, -7.8735347, 5.615234, 47.0, 20.0, 13.0, 0
38133, -0.786499, 0.51464844, -0.057006836, 27.9541, -13.244628, 23.864744, 47.0, 20.0, 13.0, 0
38151, -0.8496094, 0.52648926, -0.036621094, 30.273436, -20.996092, 43.701168, 47.0, 20.0, 13.0, 0
38171, -0.8598633, 0.5357666, -0.030639648, 29.785154, -26.000975, 53.52783, 43.0, 20.0, 15.0, 0
38190, -0.76293945, 0.5734863, -0.046142578, 28.808592, -45.593258, 74.95117, 43.0, 20.0, 15.0, 0
38215, -0.62646484, 0.5559082, -0.06713867, 32.104492, -54.809566, 90.27099, 43.0, 20.0, 15.0, 0
38232, -0.5563965, 0.5152588, -0.067871094, 31.799314, -52.185055, 106.75048, 43.0, 20.0, 15.0, 0
38250, -0.55688477, 0.4781494, -0.061401367, 25.329588, -43.15185, 113.0371, 43.0, 20.0, 15.0, 0
38272, -0.6201172, 0.460083, -0.064208984, 12.512206, -36.68213, 104.797356, 39.0, 29.0, 12.0, 0
38291, -0.6972656, 0.5041504, -0.057617188, 0.122070305, -33.935547, 90.02685, 39.0, 29.0, 12.0, 0
38308, -0.7607422, 0.5574951, -0.028808594, -2.380371, -35.339355, 85.99853, 39.0, 29.0, 12.0, 0
38328, -0.86572266, 0.5852051, 1.2207031E-4, -1.159668, -37.17041, 88.806145, 39.0, 29.0, 12.0, 0
38346, -0.9169922, 0.5983887, 0.010498047, -1.2207031, -40.100098, 100.769035, 39.0, 29.0, 12.0, 0
38364, -1.0296631, 0.6588135, 0.012817383, -5.004883, -42.114254, 116.516106, 34.0, 31.0, 17.0, 0
38388, -1.0577393, 0.7006836, -0.005859375, -6.2255855, -44.06738, 130.31006, 34.0, 31.0, 17.0, 0
38406, -1.0614014, 0.7015381, -0.018554688, -2.380371, -44.18945, 142.51709, 34.0, 31.0, 17.0, 0
38428, -1.010376, 0.7470703, -0.04321289, 1.5258788, -36.010742, 174.92674, 34.0, 31.0, 17.0, 0
38446, -0.91430664, 0.7219238, -0.024047852, 38.33008, -46.20361, 164.67284, 34.0, 31.0, 17.0, 0
38464, -0.9232178, 0.60632324, -0.041748047, 32.470703, -46.020504, 150.81787, 27.0, 36.0, 8.0, 0
38490, -0.8843994, 0.6586914, -0.011962891, 32.592773, -38.94043, 161.19383, 27.0, 36.0, 8.0, 0
38508, -0.9001465, 0.5533447, -0.0041503906, 26.18408, -44.372555, 135.31494, 27.0, 36.0, 8.0, 0
38530, -0.9119873, 0.5812988, -0.009155273, 15.441894, -43.273922, 125.54931, 27.0, 36.0, 8.0, 0
38547, -0.907959, 0.62145996, 0.017456055, 18.859863, -45.95947, 102.172844, 27.0, 36.0, 8.0, 0
38565, -0.9277344, 0.6253662, 0.030151367, 17.63916, -42.236324, 96.374504, 21.0, 40.0, 2.0, 0
38589, -0.91918945, 0.58703613, 0.02355957, -5.1269526, -30.456541, 105.71288, 21.0, 40.0, 2.0, 0
38606, -0.8937988, 0.5875244, 0.016357422, -25.81787, -24.841307, 91.064445, 21.0, 40.0, 2.0, 0
38628, -0.8782959, 0.6743164, -6.1035156E-4, -23.376463, -22.03369, 76.416016, 21.0, 40.0, 2.0, 0
38646, -0.85583496, 0.6524658, -0.02319336, -20.1416, -12.268065, 74.21875, 21.0, 40.0, 2.0, 0
38664, -0.8527832, 0.63513184, -0.034301758, -16.540527, -11.169433, 67.87109, 16.0, 40.0, 5.0, 0
38687, -0.88916016, 0.6470947, -0.060668945, -17.028809, -6.408691, 54.809566, 16.0, 40.0, 5.0, 0
38705, -0.9244385, 0.67871094, -0.07128906, -21.118162, -2.0751953, 49.926754, 16.0, 40.0, 5.0, 0
38726, -0.9359131, 0.7038574, -0.0690918, -23.315428, -1.7700194, 39.978027, 16.0, 40.0, 5.0, 0
38744, -0.9713135, 0.7438965, -0.06970215, -22.03369, -1.2817382, 30.700682, 16.0, 40.0, 5.0, 0
38762, -1.0030518, 0.7767334, -0.061279297, -12.512206, 0.9155273, 26.06201, 8.0, 40.0, 8.0, 0
38785, -1.010498, 0.7904053, -0.041992188, 19.104004, -9.887695, 9.338379, 8.0, 40.0, 8.0, 0
38802, -1.0128174, 0.663208, -0.07470703, 26.367186, -6.774902, -14.343261, 8.0, 40.0, 8.0, 0
38827, -1.0532227, 0.60717773, -0.12158203, 12.023925, 9.70459, -5.310058, 8.0, 40.0, 8.0, 0
38844, -1.0942383, 0.6291504, -0.15698242, 12.023925, 18.554688, -23.010252, 8.0, 40.0, 8.0, 0
38900, -1.008667, 0.6496582, -0.083862305, 39.245605, 12.878417, -64.02588, 15.0, 38.0, 7.0, 0
38926, -0.83691406, 0.60095215, -0.052612305, 48.21777, 14.22119, -68.29834, 15.0, 38.0, 7.0, 0
38943, -0.84729004, 0.39465332, -0.099365234, 40.588375, 29.052732, -104.24804, 15.0, 38.0, 7.0, 0
38981, -0.9505615, 0.4333496, -0.13964844, -10.253905, 48.21777, -119.99511, 20.0, 38.0, 9.0, 0
39039, -1.1500244, 0.5600586, -0.11975098, -66.28418, 56.27441, -137.69531, 20.0, 38.0, 9.0, 0
39053, -1.1578369, 0.5994873, -0.11694336, -59.44824, 44.494625, -135.43701, 20.0, 38.0, 9.0, 0
39072, -1.1483154, 0.60180664, -0.09436035, -58.837887, 32.226562, -130.31006, 23.0, 36.0, 6.0, 0
39116, -1.092041, 0.5911865, -0.095458984, -13.732909, 11.9018545, -108.825676, 23.0, 36.0, 6.0, 0
39094, -1.1269531, 0.6015625, -0.08251953, -33.569336, 16.967773, -109.7412, 23.0, 36.0, 6.0, 0
39137, -1.0325928, 0.51660156, -0.106933594, 16.235352, 7.93457, -113.15917, 23.0, 36.0, 6.0, 0
39192, -0.9025879, 0.36816406, -0.0345459, 36.315918, 12.08496, -114.379875, 33.0, 34.0, 6.0, 0
39212, -0.87805176, 0.34179688, -0.006713867, 34.606934, 14.343261, -119.14062, 33.0, 34.0, 6.0, 0
39234, -0.8483887, 0.34729004, -0.009521484, 30.09033, 16.479492, -119.20165, 33.0, 34.0, 6.0, 0
39270, -0.7607422, 0.37573242, -0.026245117, 19.89746, 14.404296, -104.12597, 35.0, 30.0, 10.0, 0
39318, -0.66467285, 0.37878418, 0.0015869141, 23.010252, 11.169433, -76.47705, 35.0, 30.0, 10.0, 0
39347, -0.6118164, 0.35583496, 0.0063476562, 19.28711, 10.375976, -57.128902, 35.0, 30.0, 10.0, 0
39365, -0.6152344, 0.34765625, -0.0075683594, 14.404296, 9.277344, -46.08154, 33.0, 31.0, 19.0, 0
39391, -0.69091797, 0.3560791, 0.013549805, 8.911133, 7.4462886, -33.75244, 33.0, 31.0, 19.0, 0
39408, -0.7249756, 0.36889648, 0.026123047, 2.5024414, 4.3945312, -24.353025, 33.0, 31.0, 19.0, 0
39486, -0.8405762, 0.5953369, -0.027954102, 18.798828, -33.14209, 36.8042, 39.0, 31.0, 16.0, 0
39558, -0.9317627, 0.64086914, 0.017333984, 42.05322, -65.61279, 111.57226, 39.0, 31.0, 16.0, 0
39689, -0.9682617, 0.4786377, -0.030639648, -18.249512, -31.86035, 84.10644, 25.0, 38.0, 10.0, 0
39708, -1.0708008, 0.5650635, 0.023925781, -26.367186, -25.81787, 89.5996, 25.0, 38.0, 10.0, 0
39726, -1.1359863, 0.6118164, 0.06726074, -26.611326, -21.057127, 97.83935, 25.0, 38.0, 10.0, 0
39765, -1.0256348, 0.6595459, 0.0657959, 37.53662, -42.41943, 93.01757, 18.0, 40.0, 6.0, 0
39789, -0.9465332, 0.6479492, 0.0037841797, 41.01562, -36.8042, 103.27148, 18.0, 40.0, 6.0, 0
39806, -0.8796387, 0.5986328, -0.0052490234, 41.25976, -30.517576, 114.56298, 18.0, 40.0, 6.0, 0
39824, -0.80322266, 0.49768066, -0.017089844, 37.17041, -29.113768, 97.59521, 18.0, 40.0, 6.0, 0
39902, -0.76904297, 0.4909668, 0.026855469, 12.512206, -24.353025, 72.08252, 14.0, 39.0, -1.0, 0
39935, -0.8256836, 0.6010742, 0.029541016, 4.333496, -20.62988, 60.79101, 14.0, 39.0, -1.0, 0
39952, -0.8658447, 0.59924316, 0.016113281, 4.272461, -18.371582, 61.218258, 14.0, 39.0, -1.0, 0
39992, -0.8878174, 0.6269531, -0.039916992, 3.234863, -16.845703, 59.753414, 10.0, 40.0, 3.0, 0
40029, -0.8848877, 0.6468506, -0.08947754, 19.836426, -11.413573, 46.508785, 10.0, 40.0, 3.0, 0
40047, -0.88183594, 0.63012695, -0.07910156, 29.479979, -7.5073237, 40.100098, 10.0, 40.0, 3.0, 0
40065, -0.8931885, 0.63464355, -0.0949707, 35.949707, -5.9204097, 28.564451, 6.0, 38.0, 0.0, 0
40105, -0.9482422, 0.6152344, -0.14587402, 31.311033, 0.3662109, 9.58252, 6.0, 38.0, 0.0, 0
40128, -0.9986572, 0.616333, -0.15942383, 20.38574, 3.7231443, -0.9155273, 6.0, 38.0, 0.0, 0
40146, -1.0667725, 0.6647949, -0.1665039, 9.94873, 4.9438477, -11.1083975, 6.0, 38.0, 0.0, 0
40164, -1.0706787, 0.71191406, -0.17163086, 3.7841794, 4.0283203, -16.052246, 7.0, 39.0, 0.0, 0
40243, -1.0368652, 0.5921631, -0.15991211, -2.807617, 0.30517578, -54.13818, 7.0, 39.0, 0.0, 0
40276, -0.8000488, 0.54870605, -0.13232422, 17.8833, 2.380371, -72.32666, 9.0, 40.0, -1.0, 0
40297, -0.8360596, 0.38110352, -0.14282227, 20.080564, 14.09912, -102.294914, 9.0, 40.0, -1.0, 0
40315, -0.9256592, 0.37182617, -0.16247559, -7.8124995, 29.235838, -120.8496, 9.0, 40.0, -1.0, 0
40339, -0.9935303, 0.43029785, -0.16320801, -30.578611, 35.88867, -128.84521, 9.0, 40.0, -1.0, 0
40357, -1.0283203, 0.46948242, -0.15112305, -41.870113, 35.15625, -134.94873, 9.0, 40.0, -1.0, 0
40372, -1.0921631, 0.46289062, -0.15844727, -50.170895, 28.991697, -129.45557, 17.0, 38.0, 2.0, 0
40394, -1.0545654, 0.54833984, -0.16662598, -54.62646, 25.573729, -124.87792, 17.0, 38.0, 2.0, 0
40412, -1.0776367, 0.5899658, -0.1385498, -41.625973, 15.8081045, -120.78857, 17.0, 38.0, 2.0, 0
40436, -1.072998, 0.59265137, -0.10949707, -20.62988, 6.7138667, -115.41747, 17.0, 38.0, 2.0, 0
40512, -0.9415283, 0.47766113, -0.12548828, 45.227047, -14.404296, -108.27636, 26.0, 37.0, 4.0, 0
40685, -0.6119385, 0.35986328, -0.0925293, 43.762203, -22.644041, -71.04492, 35.0, 31.0, -2.0, 0
40715, -0.5933838, 0.34631348, -0.10876465, 43.579098, -27.282713, -60.4248, 35.0, 31.0, -2.0, 0
40733, -0.6196289, 0.33459473, -0.09399414, 43.518063, -28.564451, -54.992672, 35.0, 31.0, -2.0, 0
40751, -0.6639404, 0.34936523, -0.068115234, 42.66357, -32.470703, -42.29736, 35.0, 31.0, -2.0, 0
40813, -0.7565918, 0.49987793, -0.005493164, 50.415035, -53.161617, 7.995605, 36.0, 31.0, 0.0, 0
41074, -1.1351318, 0.6113281, 0.29504395, 50.048824, -46.142574, 66.77246, 23.0, 37.0, -4.0, 0
41123, -1.1461182, 0.7623291, 0.017089844, 96.55761, -41.076656, 86.1206, 23.0, 37.0, -4.0, 0
41543, -1.1351318, 0.5875244, -0.05102539, -111.63329, 5.249023, -39.245605, 3.0, 34.0, -3.0, 0
41562, -1.2697754, 0.56066895, 0.010253906, -135.0708, 7.263183, -47.485348, 0.0, 34.0, -1.0, 0
41584, -1.4279785, 0.56188965, -0.0041503906, -143.24951, 8.972168, -51.269527, 0.0, 34.0, -1.0, 0
41642, -1.0860596, 0.4786377, 0.10192871, -112.67089, 15.563964, -88.562004, 0.0, 34.0, -1.0, 0
41687, -0.84887695, 0.2734375, 0.13085938, -96.55761, 25.085447, -123.04687, 6.0, 32.0, 2.0, 0
41705, -0.8125, 0.31152344, 0.08605957, -107.72704, 29.907225, -130.79834, 6.0, 32.0, 2.0, 0
41745, -0.89697266, 0.44384766, 0.2524414, -114.99023, 34.301758, -133.48389, 6.0, 32.0, 2.0, 0
41806, -1.177002, 0.4156494, 0.3623047, -123.35204, 56.88476, -116.271965, 13.0, 38.0, 7.0, 0
42078, -0.8302002, 0.49145508, 0.14050293, 30.883787, 67.993164, -95.45898, 36.0, 23.0, 25.0, 0
42114, -0.7713623, 0.48840332, 0.11328125, 6.2866206, 64.88037, -60.607906, 36.0, 23.0, 25.0, 0
42193, -0.75476074, 0.4239502, 0.07312012, -11.047362, 59.69238, -20.1416, 33.0, 18.0, 26.0, 0
42226, -0.9053955, 0.48840332, 0.0579834, -20.996092, 56.03027, -3.4179685, 33.0, 18.0, 26.0, 0
42243, -0.86450195, 0.52282715, 0.03466797, -34.973145, 47.119137, 15.8081045, 33.0, 18.0, 26.0, 0
42261, -0.7408447, 0.6040039, 0.0059814453, -36.92627, 36.499023, 36.8042, 33.0, 18.0, 26.0, 0
42282, -0.6173096, 0.58374023, 0.010620117, -24.29199, 27.893064, 58.1665, 32.0, 17.0, 24.0, 0
42304, -0.52575684, 0.4013672, -0.037475586, -20.446775, 26.977537, 79.52881, 32.0, 17.0, 24.0, 0
42325, -0.49865723, 0.35302734, -0.08312988, -27.404783, 28.686522, 80.5664, 32.0, 17.0, 24.0, 0
42400, -0.7092285, 0.43310547, -0.009887695, -93.01757, 45.8374, 64.7583, 34.0, 14.0, 23.0, 0
42683, -0.9592285, 0.6767578, -0.0826416, -152.89307, 27.038572, 81.72607, 36.0, 23.0, 22.0, 0
42732, -0.88061523, 0.68530273, -0.119262695, -147.76611, 15.86914, 72.81494, 36.0, 23.0, 22.0, 0
42957, -0.89746094, 0.4272461, 0.14282227, -73.73047, 16.418457, -39.001465, 43.0, 18.0, 8.0, 0
42975, -0.92248535, 0.41308594, 0.171875, -54.38232, 20.1416, -47.85156, 41.0, 13.0, 1.0, 0
43017, -1.0323486, 0.32226562, 0.2487793, -39.245605, 24.902342, -50.903316, 41.0, 13.0, 1.0, 0
43054, -1.2384033, 0.34033203, 0.31359863, -64.7583, 36.743164, -52.307125, 41.0, 13.0, 1.0, 0
43092, -1.3005371, 0.48156738, 0.258667, -106.933586, 35.64453, -52.00195, 34.0, 7.0, -6.0, 0
43168, -0.8876953, 0.32421875, 0.20300293, -113.76952, 66.77246, -57.67822, 31.0, 6.0, -5.0, 0
43201, -1.0703125, 0.35473633, 0.23046875, -147.64404, 86.42577, -95.45898, 31.0, 6.0, -5.0, 0
43220, -1.1297607, 0.44714355, 0.16308594, -156.55518, 90.820305, -105.28564, 31.0, 6.0, -5.0, 0
43237, -1.1066895, 0.59729004, 0.13757324, -145.1416, 88.13476, -101.98974, 31.0, 6.0, -5.0, 0
43256, -1.1276855, 0.6530762, 0.15429688, -113.22021, 78.61328, -98.57177, 31.0, 6.0, -5.0, 0
43277, -1.1044922, 0.6357422, 0.20959473, -102.60009, 73.36426, -96.31347, 31.0, 6.0, -3.0, 0
43296, -1.1179199, 0.5911865, 0.25708008, -88.86718, 59.69238, -90.75927, 31.0, 6.0, -3.0, 0
43313, -1.125, 0.56152344, 0.26013184, -85.93749, 55.847164, -93.078606, 31.0, 6.0, -3.0, 0
43335, -1.1152344, 0.53430176, 0.23413086, -82.763664, 51.391598, -100.34179, 31.0, 6.0, -3.0, 0
43355, -1.0906982, 0.5292969, 0.20080566, -72.021484, 49.86572, -105.89599, 31.0, 6.0, -3.0, 0
43373, -1.0545654, 0.5079346, 0.16625977, -67.19971, 49.98779, -107.84911, 41.0, 9.0, -4.0, 0
43395, -0.9963379, 0.47070312, 0.14282227, -57.67822, 49.255367, -117.00439, 41.0, 9.0, -4.0, 0
43413, -0.9279785, 0.45629883, 0.13452148, -45.593258, 48.156734, -124.57275, 41.0, 9.0, -4.0, 0
43434, -0.86499023, 0.45947266, 0.13171387, -30.700682, 46.20361, -121.45995, 41.0, 9.0, -4.0, 0
43453, -0.81555176, 0.46191406, 0.13427734, -16.723633, 43.518063, -114.99023, 41.0, 9.0, -4.0, 0
43471, -0.7730713, 0.44091797, 0.13830566, -7.568359, 41.992184, -109.92431, 49.0, 4.0, -13.0, 0
43494, -0.7446289, 0.41418457, 0.14257812, -5.4321284, 40.588375, -104.309074, 49.0, 4.0, -13.0, 0
43512, -0.7232666, 0.38916016, 0.13293457, -3.6621091, 39.001465, -99.06005, 49.0, 4.0, -13.0, 0
43535, -0.6888428, 0.37097168, 0.123046875, -4.9438477, 37.53662, -96.00829, 49.0, 4.0, -13.0, 0
43572, -0.67529297, 0.36206055, 0.123535156, -14.22119, 35.7666, -81.17675, 53.0, 3.0, -15.0, 0
43594, -0.6921387, 0.3753662, 0.12817383, -15.380858, 34.79004, -68.359375, 53.0, 3.0, -15.0, 0
43612, -0.7060547, 0.38757324, 0.12231445, -14.831542, 32.226562, -58.837887, 53.0, 3.0, -15.0, 0
43630, -0.71899414, 0.41723633, 0.11328125, -12.390136, 28.625486, -49.194332, 53.0, 3.0, -15.0, 0
43671, -0.7318115, 0.42004395, 0.0892334, -6.7138667, 23.681639, -17.456055, 51.0, 6.0, -17.0, 0
43691, -0.79577637, 0.42016602, 0.072265625, -4.760742, 22.644041, 2.380371, 51.0, 6.0, -17.0, 0
43728, -0.8601074, 0.52453613, 0.032714844, -0.7324218, 14.038085, 32.165527, 51.0, 6.0, -17.0, 0
43747, -0.85876465, 0.5734863, 0.017333984, 3.0517576, 5.7983394, 47.180172, 51.0, 6.0, -17.0, 0
43711, -0.8569336, 0.4605713, 0.053955078, -2.4414062, 19.65332, 18.371582, 51.0, 6.0, -17.0, 0
43808, -0.6094971, 0.5740967, -0.13452148, 1.0986328, -13.000487, 109.37499, 53.0, 13.0, -17.0, 0
43825, -0.5576172, 0.55615234, -0.14123535, -13.732909, -13.305663, 128.78418, 53.0, 13.0, -17.0, 0
43845, -0.5124512, 0.44750977, -0.118652344, -32.470703, -12.390136, 141.35742, 53.0, 13.0, -17.0, 0
43862, -0.56799316, 0.31933594, -0.107177734, -52.49023, -6.469726, 145.08057, 53.0, 13.0, -17.0, 0
43882, -0.72558594, 0.45007324, -0.12854004, -79.40674, 2.4414062, 118.164055, 50.0, 20.0, -19.0, 0
43939, -1.0819092, 0.803833, -0.10192871, -88.07372, 5.5541987, 114.44091, 50.0, 20.0, -19.0, 0
44026, -1.0177002, 0.7303467, -0.15466309, -3.601074, 1.0375977, 152.40479, 46.0, 27.0, -22.0, 0
44046, -0.9293213, 0.60095215, -0.15625, -6.103515, 13.610839, 124.75585, 46.0, 27.0, -22.0, 0
44064, -0.84606934, 0.4987793, -0.15319824, -19.104004, 13.427733, 108.215324, 46.0, 27.0, -22.0, 0
44104, -0.8395996, 0.5498047, -0.12365723, -58.837887, 10.986327, 84.655754, 38.0, 32.0, -18.0, 0
44127, -0.8991699, 0.5085449, -0.09716797, -71.47217, 14.404296, 88.86718, 38.0, 32.0, -18.0, 0
44144, -0.8984375, 0.524292, -0.095581055, -82.94677, 15.8081045, 93.87206, 38.0, 32.0, -18.0, 0
44161, -0.8684082, 0.5860596, -0.09838867, -85.57128, 15.8081045, 89.66064, 38.0, 32.0, -18.0, 0
44179, -0.848999, 0.59765625, -0.115600586, -82.58056, 14.09912, 83.496086, 31.0, 38.0, -19.0, 0
44200, -0.84277344, 0.5899658, -0.13830566, -76.23291, 10.620116, 78.85742, 31.0, 38.0, -19.0, 0
44218, -0.8253174, 0.595459, -0.16174316, -69.64111, 9.399414, 71.41113, 31.0, 38.0, -19.0, 0
44240, -0.80895996, 0.59020996, -0.16174316, -57.67822, 7.0190425, 59.57031, 31.0, 38.0, -19.0, 0
44258, -0.8039551, 0.567749, -0.15478516, -51.208492, 6.04248, 54.01611, 31.0, 38.0, -19.0, 0
44276, -0.822876, 0.5583496, -0.16455078, -39.42871, 3.967285, 39.67285, 27.0, 39.0, -21.0, 0
44298, -0.85717773, 0.5847168, -0.17346191, -36.254883, 2.1972656, 33.14209, 27.0, 39.0, -21.0, 0
44338, -0.9165039, 0.595459, -0.13256836, -29.907225, -1.0375977, 12.145995, 27.0, 39.0, -21.0, 0
44316, -0.881958, 0.5913086, -0.16345215, -31.86035, -0.30517578, 15.502929, 27.0, 39.0, -21.0, 0
44396, -1.0317383, 0.56030273, -0.11413574, -31.799314, 2.6245115, -28.19824, 25.0, 39.0, -24.0, 0
44414, -1.0767822, 0.5723877, -0.09375, -21.91162, 0.24414061, -44.982906, 25.0, 39.0, -24.0, 0
44436, -1.1159668, 0.5319824, -0.060180664, -18.371582, 3.7231443, -54.077145, 25.0, 39.0, -24.0, 0
44454, -1.163208, 0.484375, -0.046875, -18.920898, 9.155273, -65.24658, 25.0, 39.0, -24.0, 0
44535, -0.93066406, 0.51708984, -0.047729492, -24.719236, 18.371582, -89.050285, 30.0, 44.0, -21.0, 0
44615, -1.0686035, 0.46191406, -0.036987305, -45.71533, 31.616209, -126.464836, 36.0, 40.0, -15.0, 0
44633, -1.0666504, 0.52905273, -0.008666992, -47.72949, 30.2124, -127.624504, 36.0, 40.0, -15.0, 0
44651, -1.0999756, 0.55688477, 0.008544922, -44.860836, 26.611326, -125.79345, 36.0, 40.0, -15.0, 0
44673, -1.1108398, 0.611084, 0.02319336, -31.555174, 18.615723, -119.20165, 46.0, 34.0, -17.0, 0
44691, -1.1074219, 0.61242676, 0.050048828, -14.282226, 11.352538, -112.54882, 46.0, 34.0, -17.0, 0
44712, -1.100708, 0.55493164, 0.06286621, -4.699707, 7.0800776, -108.03222, 46.0, 34.0, -17.0, 0
44730, -1.0686035, 0.5288086, 0.03527832, -2.4414062, 5.737304, -106.079094, 46.0, 34.0, -17.0, 0
44748, -1.0244141, 0.5250244, -0.028808594, 2.380371, 2.807617, -107.23876, 46.0, 34.0, -17.0, 0
44769, -0.96569824, 0.5079346, -0.041381836, 4.8828125, 2.2583008, -110.29052, 52.0, 26.0, -15.0, 0
44788, -0.91101074, 0.45922852, 0.012207031, 15.686034, 4.211426, -112.487785, 52.0, 26.0, -15.0, 0
44805, -0.8828125, 0.43347168, 0.029785156, 19.348145, 5.0659175, -111.08398, 52.0, 26.0, -15.0, 0
44826, -0.82543945, 0.4005127, 0.028076172, 22.583006, 6.774902, -109.25292, 52.0, 26.0, -15.0, 0
44843, -0.7770996, 0.4119873, -0.008544922, 22.583006, 8.7890625, -107.42187, 52.0, 26.0, -15.0, 0
44861, -0.7392578, 0.4375, -0.034179688, 20.690916, 10.803222, -104.12597, 52.0, 26.0, -15.0, 0
44882, -0.7138672, 0.4453125, -0.021118164, 18.127441, 11.169433, -98.32763, 52.0, 18.0, -15.0, 0
44901, -0.66711426, 0.42871094, -0.009887695, 18.310547, 9.765625, -89.11132, 52.0, 18.0, -15.0, 0
44919, -0.62231445, 0.39819336, -8.544922E-4, 18.310547, 8.300781, -79.3457, 52.0, 18.0, -15.0, 0
44940, -0.59973145, 0.3647461, 0.017822266, 17.578125, 8.422852, -74.8291, 52.0, 18.0, -15.0, 0
44957, -0.6072998, 0.35339355, 0.024536133, 11.9018545, 11.657714, -62.31689, 52.0, 18.0, -15.0, 0
44975, -0.64697266, 0.34423828, 0.03125, 8.728027, 12.573241, -57.92236, 55.0, 11.0, -14.0, 0
44997, -0.68273926, 0.3515625, 0.032836914, 1.159668, 13.122558, -46.264645, 55.0, 11.0, -14.0, 0
45016, -0.71777344, 0.36853027, 0.048095703, -3.967285, 11.230468, -22.15576, 55.0, 11.0, -14.0, 0
45038, -0.7606201, 0.42285156, 0.026123047, -2.6855466, 8.7890625, -12.20703, 55.0, 11.0, -14.0, 0
45055, -0.7799072, 0.44030762, 0.009887695, 2.4414062, 2.9907224, 9.216309, 55.0, 11.0, -14.0, 0
45073, -0.8034668, 0.5107422, -0.06970215, 5.8593745, -2.2583008, 28.32031, 57.0, 16.0, -10.0, 0
45100, -0.78344727, 0.5584717, -0.11340332, 5.9204097, -8.178711, 43.090816, 57.0, 16.0, -10.0, 0
45118, -0.8508301, 0.54785156, -0.115600586, 10.559081, -17.089844, 72.93701, 57.0, 16.0, -10.0, 0
45175, -0.9560547, 0.52233887, -0.10827637, 6.5307612, -30.517576, 102.783195, 53.0, 19.0, -11.0, 0
45198, -0.8267822, 0.60180664, -0.17492676, 1.4648436, -40.222164, 113.09814, 53.0, 19.0, -11.0, 0
45216, -0.7940674, 0.60302734, -0.18127441, -2.2583008, -49.07226, 125.976555, 53.0, 19.0, -11.0, 0
45275, -0.82995605, 0.53515625, -0.10473633, 33.75244, -46.69189, 143.0664, 46.0, 22.0, -14.0, 0
45257, -0.7369385, 0.5548096, -0.12988281, 19.40918, -50.96435, 145.69092, 53.0, 19.0, -11.0, 0
45238, -0.7188721, 0.5645752, -0.14770508, 3.2958982, -52.917477, 138.67188, 53.0, 19.0, -11.0, 0
45314, -0.9727783, 0.5073242, -0.08081055, 25.146482, -38.208008, 115.23437, 46.0, 22.0, -14.0, 0
45336, -1.0358887, 0.51416016, -0.080200195, 9.765625, -33.75244, 110.595695, 46.0, 22.0, -14.0, 0
45357, -1.1168213, 0.569458, -0.10803223, -0.5493164, -26.611326, 111.57226, 46.0, 22.0, -14.0, 0
45375, -1.1185303, 0.673584, -0.10253906, 6.5307612, -19.470215, 127.56347, 45.0, 30.0, -18.0, 0
45397, -1.0877686, 0.6279297, -0.07019043, 41.13769, -30.517576, 113.22021, 45.0, 30.0, -18.0, 0
45414, -1.0372314, 0.54748535, -0.08129883, 45.104977, -29.602049, 104.61425, 45.0, 30.0, -18.0, 0
45437, -0.9680176, 0.55444336, -0.0715332, 34.179688, -16.845703, 114.68505, 45.0, 30.0, -18.0, 0
45454, -0.9116211, 0.4696045, -0.06689453, 24.29199, -13.732909, 96.1914, 45.0, 30.0, -18.0, 0
45472, -0.86938477, 0.4822998, -0.08178711, 4.1503906, -10.925292, 78.24707, 45.0, 36.0, -14.0, 0
45494, -0.8438721, 0.5653076, -0.10083008, -3.5400388, -10.375976, 79.10156, 45.0, 36.0, -14.0, 0
45512, -0.81066895, 0.5727539, -0.096191406, 0.3662109, -19.042969, 63.110348, 45.0, 36.0, -14.0, 0
45535, -0.83154297, 0.5250244, -0.09387207, -15.380858, -9.643555, 65.85693, 45.0, 36.0, -14.0, 0
45555, -0.7885742, 0.57958984, -0.06933594, -14.831542, -9.521484, 69.33594, 45.0, 36.0, -14.0, 0
45572, -0.77978516, 0.5892334, -0.08178711, -7.690429, -13.549804, 61.218258, 40.0, 37.0, -16.0, 0
45613, -0.852417, 0.58654785, -0.12414551, -9.277344, -10.803222, 54.565426, 40.0, 37.0, -16.0, 0
45631, -0.8359375, 0.60583496, -0.13464355, -10.437011, -8.239746, 48.156734, 40.0, 37.0, -16.0, 0
45656, -0.82385254, 0.59436035, -0.13110352, -6.1645503, -7.263183, 45.95947, 40.0, 37.0, -16.0, 0
45674, -0.82055664, 0.5716553, -0.1361084, -6.835937, -4.5776367, 39.489746, 34.0, 37.0, -13.0, 0
45697, -0.8491211, 0.56140137, -0.15319824, -18.371582, 0.42724606, 28.991697, 34.0, 37.0, -13.0, 0
45715, -0.8983154, 0.5830078, -0.17004395, -32.409668, 4.8217773, 18.554688, 34.0, 37.0, -13.0, 0
45733, -0.939209, 0.60961914, -0.17883301, -42.114254, 6.347656, 10.437011, 34.0, 37.0, -13.0, 0
45772, -1.0268555, 0.654541, -0.16088867, -46.020504, 6.347656, -1.2817382, 32.0, 38.0, -15.0, 0
45795, -1.0725098, 0.6390381, -0.15490723, -31.86035, 2.319336, -24.04785, 32.0, 38.0, -15.0, 0
45813, -1.0893555, 0.57507324, -0.18200684, -50.048824, 12.023925, -28.686522, 32.0, 38.0, -15.0, 0
45870, -1.2962646, 0.69714355, -0.25170898, -63.84277, 14.709472, -54.321285, 32.0, 39.0, -19.0, 0
45897, -1.2139893, 0.80078125, -0.13146973, -19.042969, 6.1645503, -61.82861, 32.0, 39.0, -19.0, 0
45917, -1.0500488, 0.61450195, -0.021240234, 29.113768, 0.122070305, -78.186035, 32.0, 39.0, -19.0, 0
45933, -0.9433594, 0.37780762, 0.00390625, 41.198727, 8.300781, -97.35107, 32.0, 39.0, -19.0, 0
45950, -0.87976074, 0.23706055, -0.012329102, 26.000975, 23.193357, -124.206535, 32.0, 39.0, -19.0, 0
45971, -0.86535645, 0.29553223, 0.012451172, 15.99121, 30.09033, -137.63428, 38.0, 34.0, -14.0, 0
45990, -0.897583, 0.3815918, 0.044799805, -3.601074, 44.128414, -155.82275, 38.0, 34.0, -14.0, 0
46012, -0.95410156, 0.37927246, 0.051513672, -13.793944, 45.898434, -155.2124, 38.0, 34.0, -14.0, 0
46030, -1.0318604, 0.46398926, 0.02355957, -41.01562, 44.92187, -147.15576, 38.0, 34.0, -14.0, 0
46048, -1.0706787, 0.51672363, 0.015136719, -44.7998, 39.79492, -135.80322, 38.0, 34.0, -14.0, 0
46070, -1.1383057, 0.5308838, 0.03186035, -30.517576, 33.935547, -119.26269, 45.0, 26.0, -16.0, 0
46149, -1.0421143, 0.55810547, -0.010986328, -22.460936, 18.920898, -91.55273, 45.0, 26.0, -16.0, 0
46172, -1.0092773, 0.56884766, -0.020385742, -27.893064, 18.798828, -98.266594, 47.0, 25.0, -17.0, 0
46190, -0.9436035, 0.60791016, 0.01965332, -16.967773, 18.554688, -112.97607, 47.0, 25.0, -17.0, 0
46208, -0.90722656, 0.58813477, 0.028564453, -2.9296873, 18.432617, -110.96191, 47.0, 25.0, -17.0, 0
46230, -0.77697754, 0.43017578, -0.0078125, 23.986814, 20.38574, -112.06054, 47.0, 25.0, -17.0, 0
46247, -0.73779297, 0.40551758, -0.025878906, 33.447266, 26.18408, -120.8496, 47.0, 25.0, -17.0, 0
46265, -0.6641846, 0.4486084, -0.04736328, 29.418943, 30.273436, -127.31933, 53.0, 17.0, -15.0, 0
46290, -0.5982666, 0.5073242, -0.008544922, 24.230955, 29.84619, -122.68066, 53.0, 17.0, -15.0, 0
46308, -0.5793457, 0.49230957, 0.012573242, 16.784668, 27.465818, -109.00878, 53.0, 17.0, -15.0, 0
46347, -0.5325928, 0.39611816, 0.035888672, -4.0283203, 25.146482, -85.81542, 53.0, 17.0, -15.0, 0
46365, -0.5476074, 0.41503906, 0.01171875, -15.747069, 24.963377, -80.871574, 53.0, 17.0, -15.0, 0
46387, -0.56848145, 0.4645996, -0.012939453, -21.850584, 22.827147, -73.36426, 52.0, 13.0, -17.0, 0
46405, -0.6014404, 0.49316406, -0.009033203, -21.301268, 19.470215, -61.035152, 52.0, 13.0, -17.0, 0
46427, -0.6550293, 0.48547363, 0.016845703, -13.671874, 16.418457, -43.640133, 52.0, 13.0, -17.0, 0
46445, -0.72314453, 0.49121094, 0.029418945, -4.4555664, 12.878417, -24.353025, 52.0, 13.0, -17.0, 0
46463, -0.765625, 0.53759766, -0.0053710938, -0.24414061, 7.0190425, -4.333496, 52.0, 13.0, -17.0, 0
46484, -0.8121338, 0.6040039, -0.04296875, 4.638672, -0.18310545, 18.127441, 57.0, 14.0, -13.0, 0
46503, -0.86242676, 0.6402588, -0.040161133, 13.488769, -7.4462886, 43.395992, 57.0, 14.0, -13.0, 0
46524, -0.9165039, 0.6365967, -0.033813477, 20.1416, -14.343261, 69.15283, 57.0, 14.0, -13.0, 0
46542, -0.9206543, 0.625, -0.057250977, 20.202635, -17.822266, 81.481926, 57.0, 14.0, -13.0, 0
46560, -0.8511963, 0.6508789, -0.099243164, 11.291503, -30.273436, 113.83056, 57.0, 14.0, -13.0, 0
46582, -0.7344971, 0.66638184, -0.13720703, 7.5073237, -34.79004, 121.03271, 52.0, 18.0, -15.0, 0
46600, -0.625, 0.62023926, -0.13110352, -2.9296873, -43.82324, 134.8877, 52.0, 18.0, -15.0, 0
46624, -0.5704346, 0.52819824, -0.10119629, -8.911133, -39.489746, 140.625, 52.0, 18.0, -15.0, 0
46642, -0.626709, 0.47338867, -0.09118652, -12.756347, -33.996582, 141.72363, 52.0, 18.0, -15.0, 0
46660, -0.7484131, 0.4786377, -0.10839844, -31.494139, -16.967773, 123.65722, 52.0, 18.0, -15.0, 0
46685, -0.8397217, 0.5253906, -0.10424805, -41.076656, -11.413573, 105.52978, 50.0, 25.0, -20.0, 0
46704, -0.9094238, 0.5662842, -0.09643555, -41.992184, -10.803222, 100.891106, 50.0, 25.0, -20.0, 0
46726, -0.97924805, 0.5904541, -0.07080078, -36.56006, -13.000487, 106.323235, 50.0, 25.0, -20.0, 0
46744, -1.0355225, 0.6105957, -0.06542969, -27.160643, -14.648437, 115.17333, 50.0, 25.0, -20.0, 0
46760, -1.0432129, 0.6270752, -0.08984375, -22.705076, -14.404296, 120.60546, 50.0, 25.0, -20.0, 0
46781, -0.9934082, 0.68322754, -0.11328125, -13.183593, -11.352538, 131.16455, 46.0, 30.0, -19.0, 0
46800, -0.888916, 0.6744385, -0.08154297, 30.944822, -20.996092, 149.71924, 46.0, 30.0, -19.0, 0
46825, -0.880249, 0.46618652, -0.078125, 38.33008, -23.803709, 116.08886, 46.0, 30.0, -19.0, 0
46843, -0.87072754, 0.541626, -0.05505371, 26.977537, -18.737793, 118.89648, 46.0, 30.0, -19.0, 0
46858, -0.85461426, 0.5892334, -0.057739258, 17.63916, -10.498046, 137.146, 46.0, 30.0, -19.0, 0
46879, -0.8210449, 0.5722656, -0.072631836, 27.404783, -25.878904, 113.891594, 34.0, 37.0, -22.0, 0
46898, -0.89660645, 0.56811523, -0.103515625, 3.173828, -17.333984, 99.30419, 34.0, 37.0, -22.0, 0
46924, -0.8621826, 0.5506592, -0.07397461, -2.5024414, -12.329101, 105.16357, 34.0, 37.0, -22.0, 0
46941, -0.83654785, 0.536499, -0.06359863, -14.587401, -11.230468, 92.22411, 34.0, 37.0, -22.0, 0
46958, -0.8598633, 0.58325195, -0.067871094, -20.751951, -11.779784, 76.72119, 34.0, 37.0, -22.0, 0
46976, -0.87609863, 0.64367676, -0.07165527, -14.526366, -12.20703, 81.17675, 32.0, 39.0, -20.0, 0
46997, -0.8461914, 0.6062012, -0.091796875, -14.709472, -9.94873, 75.25635, 32.0, 39.0, -20.0, 0
47016, -0.83410645, 0.60266113, -0.09765625, -16.540527, -6.103515, 66.89453, 32.0, 39.0, -20.0, 0
47096, -0.8913574, 0.6331787, -0.13317871, -24.353025, 8.422852, 28.32031, 31.0, 40.0, -23.0, 0
47149, -1.0040283, 0.74572754, -0.12426758, 1.2817382, 1.159668, -1.8920897, 31.0, 40.0, -23.0, 0
47169, -1.0931396, 0.6743164, -0.13671875, -15.99121, 8.483887, -11.352538, 31.0, 40.0, -23.0, 0
47186, -1.0887451, 0.7319336, -0.11206055, -13.000487, 7.3852534, -10.31494, 26.0, 42.0, -23.0, 0
47210, -1.0855713, 0.7055664, -0.087890625, 8.422852, 6.04248, -34.729004, 26.0, 42.0, -23.0, 0
47227, -1.2712402, 0.6314697, -0.08728027, 2.0141602, 10.681151, -54.077145, 26.0, 42.0, -23.0, 0
47245, -1.3056641, 0.66186523, -0.08093262, -16.967773, 11.96289, -70.373535, 26.0, 42.0, -23.0, 0
47266, -1.2050781, 0.67419434, -0.0435791, -18.554688, 11.718749, -79.833984, 26.0, 42.0, -23.0, 0
47284, -1.0498047, 0.6035156, -0.017944336, -12.817382, 13.427733, -81.90917, 33.0, 40.0, -25.0, 0
47327, -0.92700195, 0.43554688, -0.06384277, -30.578611, 31.433104, -120.72753, 33.0, 40.0, -25.0, 0
47345, -1.0003662, 0.4251709, -0.06567383, -56.03027, 40.77148, -137.146, 33.0, 40.0, -25.0, 0
47369, -1.0065918, 0.5102539, -0.05505371, -64.453125, 43.334957, -145.3247, 33.0, 40.0, -25.0, 0
47387, -1.0567627, 0.4991455, -0.033203125, -64.575195, 44.250484, -141.78467, 40.0, 36.0, -22.0, 0
47410, -1.0673828, 0.52197266, -0.014038086, -68.17627, 40.77148, -133.72803, 40.0, 36.0, -22.0, 0
47428, -1.0911865, 0.5058594, -0.004272461, -70.92285, 37.78076, -136.2915, 40.0, 36.0, -22.0, 0
47443, -1.1165771, 0.54919434, -0.009521484, -63.59863, 33.569336, -131.7749, 40.0, 36.0, -22.0, 0
47464, -1.1049805, 0.59191895, -0.018310547, -55.236813, 29.602049, -129.15039, 40.0, 36.0, -22.0, 0
47482, -1.0922852, 0.5749512, -0.03869629, -32.65381, 15.930175, -122.436516, 43.0, 28.0, -26.0, 0
47505, -1.0587158, 0.56604004, -0.020507812, -19.714355, 8.239746, -118.46923, 43.0, 28.0, -26.0, 0
47523, -1.0008545, 0.50634766, 0.028808594, -10.681151, 5.7983394, -116.027824, 43.0, 28.0, -26.0, 0
47541, -0.9437256, 0.44348145, 0.03894043, 9.094238, 3.4790037, -111.63329, 43.0, 28.0, -26.0, 0
47562, -0.8959961, 0.3951416, 0.016845703, 20.874022, 4.5166016, -116.333, 43.0, 28.0, -26.0, 0
47580, -0.8734131, 0.37524414, 0.0072021484, 19.958496, 10.375976, -124.81689, 46.0, 24.0, -23.0, 0
47603, -0.807251, 0.34594727, 0.0078125, 17.63916, 12.695312, -124.93896, 46.0, 24.0, -23.0, 0
47621, -0.7832031, 0.3446045, 0.01586914, 13.610839, 15.86914, -121.52099, 46.0, 24.0, -23.0, 0
47639, -0.7072754, 0.3552246, 0.037963867, 8.483887, 15.99121, -106.99462, 46.0, 24.0, -23.0, 0
47664, -0.67211914, 0.35717773, 0.03491211, 7.629394, 15.197753, -100.21972, 46.0, 24.0, -23.0, 0
47682, -0.6398926, 0.35168457, 0.032836914, 8.7890625, 11.657714, -81.05468, 53.0, 19.0, -25.0, 0
47709, -0.6118164, 0.3499756, 0.017333984, 10.131835, 7.690429, -72.81494, 53.0, 19.0, -25.0, 0
47726, -0.60668945, 0.34936523, 0.017089844, 8.666992, 4.699707, -63.47656, 53.0, 19.0, -25.0, 0
47745, -0.62768555, 0.36608887, 0.018676758, 6.5307612, 1.8310546, -52.6123, 53.0, 19.0, -25.0, 0
47762, -0.67211914, 0.40246582, 0.03173828, 7.202148, -0.97656244, -41.442867, 53.0, 19.0, -25.0, 0
47783, -0.7498779, 0.42834473, 0.06640625, 10.009766, -1.8310546, -34.91211, 56.0, 13.0, -24.0, 0
47802, -0.8171387, 0.44506836, 0.07141113, 24.16992, -4.5776367, -8.361816, 56.0, 13.0, -24.0, 0
47824, -0.84106445, 0.47192383, 0.034423828, 26.733397, -6.408691, 0.793457, 56.0, 13.0, -24.0, 0
47843, -0.87646484, 0.50097656, -0.004272461, 26.000975, -10.681151, 28.07617, 56.0, 13.0, -24.0, 0
47859, -0.9135742, 0.51953125, -0.018676758, 25.085447, -11.779784, 37.41455, 56.0, 13.0, -24.0, 0
47879, -0.99816895, 0.5716553, -0.03845215, 23.010252, -16.479492, 56.457516, 51.0, 16.0, -22.0, 0
47898, -1.0406494, 0.6270752, -0.057128906, 20.50781, -25.085447, 81.604, 51.0, 16.0, -22.0, 0
47919, -0.9641113, 0.6821289, -0.09680176, 16.723633, -36.315918, 106.079094, 51.0, 16.0, -22.0, 0
47939, -0.7891846, 0.711792, -0.13928223, 16.540527, -48.522945, 124.02343, 51.0, 16.0, -22.0, 0
47957, -0.63391113, 0.6925049, -0.1541748, 24.963377, -57.250973, 138.3667, 51.0, 16.0, -22.0, 0
47977, -0.5814209, 0.60095215, -0.12756348, 34.79004, -56.27441, 147.33887, 51.0, 23.0, -20.0, 0
47996, -0.64575195, 0.50598145, -0.118774414, 34.5459, -48.82812, 146.78955, 51.0, 23.0, -20.0, 0
48018, -0.7468262, 0.4650879, -0.14123535, 20.080564, -42.05322, 131.83594, 51.0, 23.0, -20.0, 0
48037, -0.82592773, 0.477417, -0.13330078, 1.159668, -38.146973, 114.624016, 51.0, 23.0, -20.0, 0
48055, -0.923584, 0.5128174, -0.0847168, -8.056641, -34.851074, 108.76464, 51.0, 23.0, -20.0, 0
48075, -1.0505371, 0.54919434, -0.036254883, -9.277344, -33.14209, 110.7788, 45.0, 27.0, -22.0, 0
48094, -1.1254883, 0.59521484, -0.042114258, -11.230468, -20.50781, 125.42724, 45.0, 27.0, -22.0, 0
48152, -0.9543457, 0.7003174, -0.15368652, 60.30273, -49.316402, 131.40869, 45.0, 27.0, -22.0, 0
48172, -0.92456055, 0.5560303, -0.09399414, 66.101074, -43.273922, 139.28223, 43.0, 31.0, -20.0, 0
48191, -0.8640137, 0.42687988, -0.08312988, 50.354, -38.085938, 112.121574, 43.0, 31.0, -20.0, 0
48213, -0.8227539, 0.5272217, -0.061157227, 43.640133, -44.616695, 94.23827, 43.0, 31.0, -20.0, 0
48232, -0.8631592, 0.5427246, -0.06347656, 38.513184, -45.532223, 69.70215, 43.0, 31.0, -20.0, 0
48250, -0.8930664, 0.5623779, -0.040649414, 28.930662, -36.56006, 98.81591, 43.0, 31.0, -20.0, 0
48270, -0.8444824, 0.461792, -0.024902344, 3.2958982, -28.19824, 93.200676, 43.0, 31.0, -20.0, 0
48288, -0.8709717, 0.4847412, -0.016601562, -44.128414, -27.465818, 64.208984, 40.0, 32.0, -25.0, 0
48311, -0.9165039, 0.5638428, -0.03186035, -50.781246, -26.30615, 63.293453, 40.0, 32.0, -25.0, 0
48329, -0.88549805, 0.6296387, -0.024902344, -48.645016, -21.606443, 67.07764, 40.0, 32.0, -25.0, 0
48347, -0.8469238, 0.5921631, -0.026245117, -41.442867, -21.423338, 66.04004, 40.0, 32.0, -25.0, 0
48370, -0.8182373, 0.58984375, -0.060424805, -39.42871, -20.26367, 59.326168, 40.0, 32.0, -25.0, 0
48388, -0.81555176, 0.59973145, -0.07922363, -35.40039, -16.845703, 54.38232, 36.0, 31.0, -33.0, 0
48411, -0.857666, 0.60961914, -0.07885742, -31.616209, -11.047362, 47.0581, 36.0, 31.0, -33.0, 0
48447, -0.9688721, 0.6619873, -0.092285156, -35.52246, -6.04248, 34.606934, 36.0, 31.0, -33.0, 0
48467, -0.9765625, 0.71447754, -0.088256836, -36.68213, -5.249023, 28.808592, 36.0, 31.0, -33.0, 0
48485, -0.96875, 0.7904053, -0.052612305, -11.352538, -10.009766, 22.216795, 30.0, 34.0, -31.0, 0
48506, -1.0050049, 0.7005615, -0.050048828, 11.230468, -13.366698, -8.850098, 30.0, 34.0, -31.0, 0
48543, -1.0114746, 0.5932617, -0.07861328, -6.04248, 20.996092, -16.906738, 30.0, 34.0, -31.0, 0
48581, -1.177124, 0.58898926, -0.08642578, -28.747557, 30.029295, -60.729977, 30.0, 34.0, -27.0, 0
48604, -1.1323242, 0.7071533, -0.049316406, -39.55078, 33.203125, -68.90869, 30.0, 34.0, -27.0, 0
48623, -0.99401855, 0.6685791, -0.017333984, -36.43799, 29.052732, -72.021484, 30.0, 34.0, -27.0, 0
48641, -0.93725586, 0.61450195, -0.013916016, -35.705566, 30.09033, -76.11084, 30.0, 34.0, -27.0, 0
48661, -0.90148926, 0.5037842, -0.03967285, -41.687008, 38.269043, -88.98925, 30.0, 34.0, -27.0, 0
48679, -0.9699707, 0.4501953, -0.07556152, -46.752926, 45.898434, -114.92919, 35.0, 29.0, -27.0, 0
48703, -1.0817871, 0.44384766, -0.076171875, -59.082027, 52.429195, -135.86426, 35.0, 29.0, -27.0, 0
48721, -1.100708, 0.461792, -0.064453125, -77.697754, 55.969234, -137.63428, 35.0, 29.0, -27.0, 0
48739, -1.1102295, 0.5344238, -0.052001953, -81.97021, 50.59814, -135.31494, 35.0, 29.0, -27.0, 0
48759, -1.1712646, 0.56469727, -0.079956055, -63.59863, 41.564938, -139.77051, 35.0, 29.0, -27.0, 0
48777, -1.1639404, 0.5933838, -0.053100586, -45.349117, 34.362793, -137.87842, 36.0, 29.0, -29.0, 0
48801, -1.1395264, 0.56152344, -0.026733398, -29.72412, 29.479979, -133.72803, 36.0, 29.0, -29.0, 0
48822, -1.1270752, 0.5369873, -0.05078125, -13.610839, 22.216795, -127.13622, 36.0, 29.0, -29.0, 0
48840, -1.0908203, 0.5083008, -0.07678223, -2.6245115, 19.042969, -124.26757, 36.0, 29.0, -29.0, 0
48859, -1.0444336, 0.48864746, -0.08520508, 7.4462886, 17.700195, -127.868645, 36.0, 29.0, -29.0, 0
48876, -0.9838867, 0.4835205, -0.08215332, 18.249512, 16.113281, -134.0332, 40.0, 28.0, -28.0, 0
48900, -0.93310547, 0.46069336, -0.059448242, 25.695799, 15.563964, -137.39014, 40.0, 28.0, -28.0, 0
48918, -0.8909912, 0.43566895, -0.03918457, 30.395506, 16.052246, -138.30566, 40.0, 28.0, -28.0, 0
48975, -0.7730713, 0.37963867, -0.044799805, 26.42822, 21.362303, -128.05176, 47.0, 20.0, -27.0, 0
49016, -0.651001, 0.37854004, -0.029052734, 16.662598, 21.667479, -108.27636, 47.0, 20.0, -27.0, 0
49048, -0.63464355, 0.3803711, -0.006225586, 9.70459, 19.89746, -86.547844, 47.0, 20.0, -27.0, 0
49066, -0.65893555, 0.35534668, 0.012207031, 8.972168, 18.249512, -75.31738, 47.0, 20.0, -27.0, 0
49086, -0.7186279, 0.3433838, 0.020019531, 5.004883, 14.648437, -65.979004, 50.0, 17.0, -20.0, 0
49109, -0.79174805, 0.37036133, 0.03540039, 0.18310545, 12.512206, -56.091305, 50.0, 17.0, -20.0, 0
49126, -0.828125, 0.41918945, 0.05114746, 1.4648436, 9.094238, -39.42871, 50.0, 17.0, -20.0, 0
49146, -0.8408203, 0.45300293, 0.040771484, 4.333496, 6.1645503, -29.174803, 50.0, 17.0, -20.0, 0
49164, -0.8249512, 0.49682617, 0.011230469, 9.521484, -1.7700194, -8.972168, 50.0, 17.0, -20.0, 0
49182, -0.82250977, 0.5172119, -0.0041503906, 13.000487, -9.58252, 12.145995, 53.0, 19.0, -28.0, 0
49205, -0.87280273, 0.5415039, -0.053710938, 16.113281, -15.441894, 33.935547, 53.0, 19.0, -28.0, 0
49276, -0.69091797, 0.6158447, -0.07019043, 40.954586, -50.170895, 101.68456, 51.0, 19.0, -27.0, 0
49317, -0.5788574, 0.5562744, -0.107177734, 32.77588, -56.823727, 111.38915, 51.0, 19.0, -27.0, 0
49439, -1.0668945, 0.635376, -0.03479004, -23.498533, -29.72412, 118.83544, 46.0, 24.0, -26.0, 0
49458, -1.0690918, 0.67456055, -0.068603516, -25.451658, -27.099607, 126.15966, 46.0, 24.0, -26.0, 0
49476, -1.0275879, 0.69970703, -0.080322266, -15.930175, -19.28711, 143.55469, 38.0, 30.0, -30.0, 0
49497, -0.907959, 0.78222656, -0.052978516, 25.451658, -26.733397, 168.82323, 38.0, 30.0, -30.0, 0
49515, -0.9100342, 0.5389404, -0.11376953, 47.241207, -42.41943, 118.041985, 38.0, 30.0, -30.0, 0
49536, -0.91223145, 0.6125488, -0.12451172, 31.188963, -37.41455, 113.76952, 38.0, 30.0, -30.0, 0
49554, -0.8736572, 0.6981201, -0.07055664, 24.597166, -31.005857, 141.54053, 38.0, 30.0, -30.0, 0
49612, -0.8848877, 0.5430908, -0.013793945, -1.2817382, -18.798828, 117.919914, 38.0, 32.0, -33.0, 0
49635, -0.8988037, 0.5617676, -0.01953125, -18.676758, -20.1416, 98.14452, 38.0, 32.0, -33.0, 0
49652, -0.92126465, 0.58361816, -0.02709961, -38.146973, -19.470215, 82.641594, 38.0, 32.0, -33.0, 0
49669, -0.9145508, 0.6689453, -0.032104492, -42.90771, -17.822266, 82.03124, 38.0, 32.0, -33.0, 0
49687, -0.90026855, 0.703125, -0.04260254, -33.996582, -16.540527, 82.70263, 29.0, 38.0, -34.0, 0
49710, -0.90844727, 0.6768799, -0.05847168, -24.53613, -17.578125, 78.36914, 29.0, 38.0, -34.0, 0
49767, -0.8762207, 0.6906738, -0.1517334, -9.521484, -6.2866206, 57.55615, 29.0, 38.0, -34.0, 0
49830, -0.89172363, 0.81591797, -0.1105957, 9.460449, -14.22119, 24.780272, 30.0, 35.0, -37.0, 0
49847, -0.9733887, 0.68359375, -0.15075684, 15.930175, -12.817382, -16.967773, 30.0, 35.0, -37.0, 0
49865, -1.0128174, 0.6817627, -0.14501953, -10.131835, 12.756347, -5.249023, 30.0, 35.0, -37.0, 0
49910, -0.99768066, 0.5950928, -0.0970459, 20.446775, 3.6621091, -49.74365, 29.0, 35.0, -33.0, 0
49931, -1.1364746, 0.6248779, -0.13439941, 3.7841794, 11.474608, -61.95068, 29.0, 35.0, -33.0, 0
49949, -1.1064453, 0.6936035, -0.11730957, -12.695312, 18.859863, -71.10596, 29.0, 35.0, -33.0, 0
49967, -0.9901123, 0.7155762, -0.041625977, -11.96289, 15.441894, -69.03076, 29.0, 35.0, -33.0, 0
50048, -1.0893555, 0.46618652, -0.1027832, -43.579098, 36.68213, -123.35204, 28.0, 36.0, -33.0, 0
49992, -0.88500977, 0.60461426, 0.014526367, -6.5917964, 12.512206, -70.86182, 28.0, 36.0, -33.0, 0
50109, -1.1882324, 0.5373535, 0.037841797, -51.940914, 39.0625, -136.84082, 41.0, 36.0, -30.0, 0
50127, -1.2110596, 0.59680176, -0.004760742, -49.98779, 34.179688, -134.09424, 41.0, 36.0, -30.0, 0
50148, -1.2333984, 0.6224365, -0.0357666, -44.31152, 30.395506, -135.37598, 41.0, 36.0, -30.0, 0
50314, -0.8034668, 0.35925293, -0.004638672, 25.695799, 26.611326, -125.24413, 52.0, 23.0, -29.0, 0
50224, -1.0247803, 0.4091797, -0.023071289, 35.40039, 22.583006, -138.30566, 46.0, 31.0, -31.0, 0
50166, -1.1883545, 0.55078125, -0.017089844, -24.475096, 22.3999, -135.80322, 41.0, 36.0, -30.0, 0
50373, -0.67736816, 0.35327148, -0.01940918, 1.5258788, 27.221678, -97.53417, 52.0, 23.0, -29.0, 0
50656, -0.8699951, 0.63342285, -0.01977539, 24.475096, -67.44385, 146.05713, 52.0, 18.0, -24.0, 0
50677, -0.7911377, 0.62646484, -0.042114258, 27.770994, -68.66455, 160.15625, 54.0, 23.0, -27.0, 0
50718, -0.85717773, 0.508667, -0.07446289, 13.916015, -49.682613, 156.12793, 54.0, 23.0, -27.0, 0
50802, -1.1376953, 0.61608887, 0.014038086, 6.469726, -19.348145, 122.98583, 43.0, 31.0, -33.0, 0
50821, -1.1137695, 0.68151855, 0.025024414, 32.592773, -22.338865, 119.14062, 43.0, 31.0, -33.0, 0
50838, -1.1053467, 0.5899658, 0.0063476562, 56.823727, -33.813477, 96.31347, 43.0, 31.0, -33.0, 0
50877, -0.9621582, 0.5944824, 0.0030517578, 51.086422, -16.601562, 119.32372, 42.0, 36.0, -28.0, 0
50896, -0.9083252, 0.48291016, -0.0029296875, 44.250484, -14.09912, 96.00829, 42.0, 36.0, -28.0, 0
50976, -0.8244629, 0.4769287, 0.007080078, 28.07617, -16.296387, 72.81494, 42.0, 36.0, -28.0, 0
51047, -0.82666016, 0.5623779, -0.0024414062, 26.06201, -19.40918, 55.969234, 36.0, 39.0, -26.0, 0
51065, -0.82092285, 0.57458496, -0.005859375, 33.5083, -18.737793, 49.194332, 36.0, 39.0, -26.0, 0
51106, -0.7911377, 0.56188965, -0.037353516, 43.884274, -18.249512, 41.381832, 36.0, 40.0, -25.0, 0
51160, -0.854126, 0.579834, -0.047607422, 40.710445, -6.9580073, 20.751951, 36.0, 40.0, -25.0, 0
51263, -1.0235596, 0.5383301, -0.024780273, 29.479979, 14.831542, -28.808592, 39.0, 39.0, -26.0, 0
52074, -0.6392822, 0.69262695, 0.032226562, -44.67773, -54.01611, 141.60156, 58.0, 14.0, -17.0, 0
52092, -0.5369873, 0.6154785, 0.028320312, -39.67285, -52.673336, 153.62549, 53.0, 22.0, -18.0, 0
52116, -0.5673828, 0.54296875, 0.037841797, -32.104492, -39.367676, 146.85059, 53.0, 22.0, -18.0, 0
52134, -0.67700195, 0.46777344, 0.025634766, -39.30664, -25.207518, 124.69482, 53.0, 22.0, -18.0, 0
52152, -0.76794434, 0.5032959, -0.0087890625, -65.55176, -12.878417, 100.769035, 53.0, 22.0, -18.0, 0
52172, -0.84436035, 0.6434326, 0.0020751953, -86.42577, -5.981445, 91.6748, 53.0, 22.0, -18.0, 0
52190, -0.96203613, 0.77001953, 0.06530762, -88.806145, -0.30517578, 106.323235, 50.0, 27.0, -27.0, 0
52214, -1.0411377, 0.76123047, 0.14123535, -67.74902, -6.347656, 101.31835, 50.0, 27.0, -27.0, 0
52250, -1.1152344, 0.81884766, 0.02319336, -58.715816, -13.427733, 109.31396, 50.0, 27.0, -27.0, 0
52270, -1.0566406, 0.73291016, -0.017211914, -57.495113, -9.155273, 118.34716, 50.0, 27.0, -27.0, 0
52288, -0.9868164, 0.58081055, -0.03466797, -68.84766, -2.319336, 100.03661, 41.0, 30.0, -29.0, 0
52310, -0.9337158, 0.56604004, -0.040039062, -75.74463, -1.586914, 89.35546, 41.0, 30.0, -29.0, 0
52329, -0.9342041, 0.58703613, -0.059326172, -94.604485, -0.30517578, 67.44385, 41.0, 30.0, -29.0, 0
52347, -0.9293213, 0.62072754, -0.06237793, -99.91454, 1.0375977, 68.54248, 41.0, 30.0, -29.0, 0
52368, -0.9038086, 0.65075684, -0.048217773, -98.57177, -0.5493164, 65.73486, 41.0, 30.0, -29.0, 0
52385, -0.90356445, 0.61499023, -0.03491211, -95.1538, -2.5634763, 58.53271, 34.0, 36.0, -31.0, 0
52445, -0.94470215, 0.5144043, 0.08166504, -80.68847, 4.272461, 46.142574, 34.0, 36.0, -31.0, 0
52578, -0.729126, 0.4468994, -0.003540039, -138.42773, 47.485348, -17.39502, 27.0, 37.0, -36.0, 0
53240, -0.9650879, 0.45373535, 0.20666504, -81.66503, 98.20556, -103.88183, 22.0, 50.0, -5.0, 0
53258, -0.9527588, 0.45629883, 0.20275879, -68.42041, 98.876945, -98.08349, 22.0, 50.0, -5.0, 0
53276, -0.9333496, 0.47705078, 0.18676758, -61.523434, 97.90038, -95.33691, 22.0, 50.0, -5.0, 0
53333, -0.82922363, 0.46813965, 0.08154297, -16.479492, 88.928215, -75.43945, 33.0, 46.0, -4.0, 0
53405, -0.71520996, 0.46472168, 0.048461914, -6.896972, 73.30322, -53.833004, 38.0, 42.0, 10.0, 0
53387, -0.7233887, 0.48217773, 0.060913086, -4.760742, 78.97949, -64.819336, 38.0, 42.0, 10.0, 0
53423, -0.7249756, 0.46044922, 0.021606445, -14.587401, 67.07764, -45.776363, 38.0, 42.0, 10.0, 0
53461, -0.7548828, 0.5031738, 0.032226562, -17.028809, 56.701656, -29.785154, 38.0, 42.0, 10.0, 0
53479, -0.7852783, 0.49157715, 0.042114258, -13.0615225, 51.086422, -16.357422, 38.0, 42.0, 10.0, 0
53502, -0.7944336, 0.4835205, 0.014526367, -12.573241, 48.034664, -9.643555, 39.0, 42.0, 11.0, 0
53521, -0.7578125, 0.5004883, -0.026855469, -15.0146475, 41.01562, 1.586914, 39.0, 42.0, 11.0, 0
53534, -0.7423096, 0.5079346, -0.04321289, -17.211914, 34.66797, 12.695312, 39.0, 42.0, 11.0, 0
53593, -0.71191406, 0.4663086, -0.09838867, -17.456055, 23.010252, 54.321285, 35.0, 43.0, 11.0, 0
54087, -0.84729004, 0.6274414, -0.19824219, -75.8667, 13.427733, 70.86182, 7.0, 45.0, 10.0, 0
54186, -0.7116699, 0.46105957, -0.1583252, -15.197753, -2.1972656, 11.9018545, 7.0, 46.0, 11.0, 0
54529, -1.2893066, 0.579834, 0.0056152344, -23.92578, 29.96826, -189.0869, 25.0, 53.0, 17.0, 0
54654, -1.1779785, 0.54382324, -0.041137695, 15.380858, 19.348145, -162.04832, 41.0, 40.0, 20.0, 0
54672, -1.03479, 0.50634766, 0.0028076172, 14.831542, 29.296873, -157.2876, 41.0, 40.0, 20.0, 0
54712, -0.8404541, 0.48583984, -0.025268555, 15.0146475, 31.188963, -144.83643, 46.0, 32.0, 26.0, 0
54755, -0.71398926, 0.3959961, -0.010498047, 1.4038085, 38.757324, -130.85938, 46.0, 32.0, 26.0, 0
54773, -0.6296387, 0.3959961, 0.001953125, -0.67138666, 38.879395, -120.48339, 46.0, 32.0, 26.0, 0
54791, -0.5751953, 0.40429688, 0.006225586, 1.3427733, 34.606934, -109.985344, 51.0, 23.0, 29.0, 0
54812, -0.52893066, 0.40441895, 0.029541016, 0.42724606, 30.761717, -100.280754, 51.0, 23.0, 29.0, 0
54830, -0.50219727, 0.39794922, 0.032348633, 0.5493164, 26.977537, -87.82958, 51.0, 23.0, 29.0, 0
54886, -0.39892578, 0.3668213, 3.6621094E-4, -4.211426, 20.935057, -55.114742, 54.0, 18.0, 31.0, 0
54909, -0.44506836, 0.36950684, 0.003540039, -8.911133, 20.446775, -40.89355, 54.0, 18.0, 31.0, 0
54927, -0.47131348, 0.3881836, -0.0064697266, -12.023925, 17.456055, -24.353025, 54.0, 18.0, 31.0, 0
54984, -0.49194336, 0.45166016, -0.025390625, 4.0283203, -0.67138666, 27.221678, 55.0, 17.0, 31.0, 0
55025, -0.61035156, 0.51660156, -0.10620117, 25.146482, -12.939452, 57.312008, 55.0, 17.0, 31.0, 0
55047, -0.66223145, 0.54907227, -0.1307373, 39.18457, -32.77588, 85.75439, 55.0, 17.0, 31.0, 0
55107, -0.9370117, 0.6569824, -0.011230469, 30.273436, -58.1665, 129.88281, 49.0, 23.0, 31.0, 0
55083, -0.9012451, 0.6479492, 0.01586914, 37.902832, -47.72949, 113.70849, 49.0, 23.0, 31.0, 0
55065, -0.76538086, 0.60388184, -0.05859375, 39.916992, -37.597656, 94.360344, 55.0, 17.0, 31.0, 0
55127, -0.91503906, 0.6843262, -0.041381836, 12.023925, -63.293453, 143.7378, 49.0, 23.0, 31.0, 0
55147, -0.8441162, 0.72436523, -0.0625, -5.004883, -62.011715, 152.22168, 49.0, 23.0, 31.0, 0
55165, -0.77612305, 0.71533203, -0.07312012, -12.268065, -59.81445, 155.57861, 49.0, 23.0, 31.0, 0
55183, -0.7546387, 0.7141113, -0.13305664, -39.123535, -49.926754, 160.88866, 45.0, 35.0, 23.0, 0
55208, -0.8463135, 0.7338867, -0.13134766, -54.26025, -39.978027, 156.73828, 45.0, 35.0, 23.0, 0
55226, -0.9334717, 0.75024414, -0.06347656, -52.795406, -31.372068, 149.84131, 45.0, 35.0, 23.0, 0
55247, -0.9810791, 0.7491455, 0.009887695, -37.17041, -27.343748, 144.65332, 45.0, 35.0, 23.0, 0
55265, -1.0307617, 0.7147217, 0.034179688, -26.672361, -26.611326, 142.82227, 45.0, 35.0, 23.0, 0
55283, -1.0847168, 0.67749023, -0.003540039, -7.4462886, -25.81787, 136.2915, 33.0, 45.0, 20.0, 0
55308, -1.1446533, 0.6717529, -0.04675293, -10.375976, -13.916015, 135.13184, 33.0, 45.0, 20.0, 0
55326, -1.06604, 0.8327637, -0.002319336, 14.831542, -14.770507, 164.4287, 33.0, 45.0, 20.0, 0
55347, -1.0495605, 0.65234375, 0.020141602, 58.715816, -38.146973, 126.03759, 33.0, 45.0, 20.0, 0
55364, -1.0236816, 0.63464355, 0.017822266, 49.438473, -29.907225, 137.20703, 33.0, 45.0, 20.0, 0
55382, -0.9458008, 0.67541504, 0.040283203, 54.38232, -34.301758, 142.27295, 25.0, 49.0, 21.0, 0
55406, -0.928833, 0.5625, -0.0075683594, 52.307125, -30.761717, 119.50683, 25.0, 49.0, 21.0, 0
55463, -0.873291, 0.52648926, -0.016845703, -8.666992, -7.4462886, 110.473625, 25.0, 49.0, 21.0, 0
55481, -0.8894043, 0.58447266, -0.0068359375, -23.010252, -11.474608, 82.51952, 25.0, 49.0, 21.0, 0
55520, -0.94970703, 0.63305664, -0.0014648438, 9.033203, -5.1269526, 91.43066, 19.0, 49.0, 19.0, 0
55537, -0.91381836, 0.59313965, -0.024658203, 8.972168, -7.3852534, 84.777824, 19.0, 49.0, 19.0, 0
55558, -0.9063721, 0.6320801, -0.032104492, 8.483887, -6.5917964, 76.416016, 19.0, 49.0, 19.0, 0
55615, -0.8778076, 0.59484863, -0.115722656, -5.187988, -1.2817382, 55.66406, 9.0, 48.0, 20.0, 0
55678, -0.8572998, 0.6444092, -0.10925293, -7.263183, 2.868652, 24.108885, 9.0, 48.0, 20.0, 0
55696, -0.8544922, 0.6541748, -0.10083008, -2.0751953, 1.9531249, 14.038085, 10.0, 48.0, 19.0, 0
55719, -0.9157715, 0.6546631, -0.07849121, 15.686034, -5.737304, -4.1503906, 10.0, 48.0, 19.0, 0
55777, -0.96936035, 0.5650635, -0.030029297, -5.8593745, 15.258788, -43.701168, 10.0, 48.0, 19.0, 0
55874, -1.0410156, 0.609375, -0.018798828, -26.733397, 31.066893, -101.50146, 14.0, 47.0, 19.0, 0
55893, -0.97021484, 0.5592041, -0.041870117, -21.972654, 38.024902, -120.23925, 21.0, 48.0, 18.0, 0
55916, -0.9683838, 0.5214844, -0.052246094, -18.432617, 43.762203, -135.31494, 21.0, 48.0, 18.0, 0
55952, -1.0742188, 0.484375, -0.006225586, -26.672361, 50.659176, -163.08592, 21.0, 48.0, 18.0, 0
55972, -1.1811523, 0.48486328, 0.009399414, -36.499023, 50.354, -166.07664, 21.0, 48.0, 18.0, 0
55990, -1.2220459, 0.5734863, -0.0053710938, -59.265133, 44.18945, -167.60252, 28.0, 43.0, 27.0, 0
56049, -1.2443848, 0.6567383, -0.032348633, -23.986814, 21.91162, -141.05225, 28.0, 43.0, 27.0, 0
56068, -1.2125244, 0.6699219, -0.044189453, -4.5166016, 17.39502, -138.91602, 28.0, 43.0, 27.0, 0
56086, -1.1512451, 0.6430664, -0.04711914, 11.779784, 13.916015, -137.39014, 43.0, 35.0, 35.0, 0
56109, -1.081543, 0.5875244, -0.02746582, 21.057127, 12.20703, -135.80322, 43.0, 35.0, 35.0, 0
56128, -1.008667, 0.5338135, -0.018920898, 25.390623, 11.718749, -135.68115, 43.0, 35.0, 35.0, 0
56146, -0.92944336, 0.48718262, -0.007446289, 23.132322, 12.08496, -140.19775, 43.0, 35.0, 35.0, 0
56165, -0.8601074, 0.461792, 0.0056152344, 20.996092, 12.817382, -141.78467, 43.0, 35.0, 35.0, 0
56183, -0.8297119, 0.45092773, 0.0017089844, 9.338379, 14.892577, -135.86426, 43.0, 35.0, 35.0, 0
56201, -0.77368164, 0.42785645, -0.010986328, 2.7465818, 15.319823, -132.01904, 51.0, 25.0, 39.0, 0
56221, -0.7357178, 0.4185791, -0.020141602, -8.728027, 14.587401, -123.90136, 51.0, 25.0, 39.0, 0
56239, -0.6958008, 0.41809082, -0.022705078, -14.648437, 10.925292, -112.91503, 51.0, 25.0, 39.0, 0
56261, -0.64489746, 0.4239502, -0.016601562, -13.427733, 4.8217773, -100.03661, 51.0, 25.0, 39.0, 0
56279, -0.5999756, 0.41052246, -0.020263672, -8.850098, -1.7089843, -88.43993, 51.0, 25.0, 39.0, 0
56297, -0.57055664, 0.3869629, -0.024780273, -5.4321284, -5.4931636, -77.0874, 56.0, 15.0, 40.0, 0
56317, -0.55895996, 0.35998535, -0.009643555, -3.7231443, -6.1645503, -71.59424, 56.0, 15.0, 40.0, 0
56334, -0.5780029, 0.33532715, -0.004272461, -0.7324218, -7.995605, -54.565426, 56.0, 15.0, 40.0, 0
56357, -0.61779785, 0.33691406, 4.8828125E-4, -1.0375977, -9.216309, -49.438473, 56.0, 15.0, 40.0, 0
56374, -0.6583252, 0.36108398, 0.022460938, 1.4038085, -15.0146475, -31.188963, 56.0, 15.0, 40.0, 0
56394, -0.6784668, 0.38000488, 0.041748047, 8.605957, -20.62988, -10.437011, 55.0, 13.0, 39.0, 0
56416, -0.694458, 0.3972168, 0.036010742, 11.96289, -23.498533, 1.159668, 55.0, 13.0, 39.0, 0
56434, -0.69177246, 0.41088867, 0.01977539, 19.714355, -31.372068, 32.77588, 55.0, 13.0, 39.0, 0
56457, -0.71520996, 0.41552734, 0.013183594, 20.080564, -32.77588, 42.968746, 55.0, 13.0, 39.0, 0
56474, -0.7446289, 0.42529297, 0.015258789, 17.211914, -34.729004, 63.84277, 55.0, 13.0, 39.0, 0
56491, -0.83044434, 0.47058105, 0.026245117, 13.183593, -36.8042, 84.10644, 55.0, 15.0, 34.0, 0
56512, -0.9144287, 0.5157471, 0.036010742, 12.329101, -42.114254, 105.2246, 55.0, 15.0, 34.0, 0
56530, -0.92785645, 0.59155273, 0.026977539, 14.648437, -52.36816, 125.12206, 55.0, 15.0, 34.0, 0
56548, -0.8790283, 0.6314697, 0.011962891, 20.996092, -64.575195, 141.47949, 55.0, 15.0, 34.0, 0
56569, -0.8123779, 0.62158203, -2.4414062E-4, 24.353025, -71.22803, 152.09961, 55.0, 15.0, 34.0, 0
56587, -0.7614746, 0.59729004, -0.0087890625, 25.695799, -70.92285, 160.70555, 44.0, 31.0, 31.0, 0
56645, -0.96203613, 0.5628662, 0.03137207, 16.662598, -48.034664, 156.00586, 44.0, 31.0, 31.0, 0
56670, -1.041626, 0.6158447, 0.026000977, 4.333496, -43.82324, 149.78027, 44.0, 31.0, 31.0, 0
56688, -1.1318359, 0.6489258, 0.018310547, -0.67138666, -42.236324, 149.59717, 37.0, 41.0, 34.0, 0
56710, -1.2058105, 0.6516113, 0.008911133, -7.8124995, -35.339355, 152.771, 37.0, 41.0, 34.0, 0
56728, -1.2386475, 0.65063477, -0.013549805, -10.375976, -32.165527, 153.19824, 37.0, 41.0, 34.0, 0
56746, -1.2164307, 0.7508545, -0.04309082, -7.0190425, -16.418457, 167.54149, 37.0, 41.0, 34.0, 0
56770, -1.1063232, 0.7657471, -0.01940918, 39.30664, -22.15576, 162.29247, 37.0, 41.0, 34.0, 0
56787, -1.090332, 0.5522461, -0.046875, 56.88476, -27.465818, 122.192375, 26.0, 46.0, 30.0, 0
56810, -1.0179443, 0.6427002, -0.03857422, 41.076656, -12.695312, 132.44629, 26.0, 46.0, 30.0, 0
56828, -0.9099121, 0.6497803, -0.017211914, 42.358395, -7.4462886, 137.45117, 26.0, 46.0, 30.0, 0
56846, -0.8835449, 0.545166, -0.02734375, 62.19482, -30.395506, 93.50585, 26.0, 46.0, 30.0, 0
56869, -0.94299316, 0.51867676, -0.05517578, 32.348633, -14.038085, 98.754875, 26.0, 46.0, 30.0, 0
56887, -0.91955566, 0.5300293, -0.055419922, 13.0615225, -6.408691, 102.05077, 18.0, 47.0, 31.0, 0
56912, -0.8898926, 0.52490234, -0.01953125, 1.9531249, -9.70459, 85.44921, 18.0, 47.0, 31.0, 0
56930, -0.90808105, 0.6069336, -0.020141602, 1.3427733, -12.145995, 73.18115, 18.0, 47.0, 31.0, 0
56946, -0.9309082, 0.62268066, -0.02746582, 8.056641, -12.878417, 76.84326, 18.0, 47.0, 31.0, 0
57028, -0.8074951, 0.63171387, -0.12451172, 43.701168, -16.723633, 53.89404, 7.0, 46.0, 29.0, 0
57140, -1.0004883, 0.6369629, -0.08544922, 19.470215, 7.8735347, -14.465331, 4.0, 48.0, 21.0, 0
57160, -1.0268555, 0.6470947, -0.072753906, 20.812986, 10.620116, -28.869627, 4.0, 48.0, 21.0, 0
57178, -1.0671387, 0.61779785, -0.084472656, 26.733397, 13.0615225, -42.846676, 4.0, 48.0, 21.0, 0
57198, -1.1469727, 0.62597656, -0.12011719, 28.625486, 14.09912, -51.269527, 9.0, 47.0, 29.0, 0
57216, -1.1900635, 0.7174072, -0.11975098, 48.21777, 18.615723, -78.49121, 9.0, 47.0, 29.0, 0
57239, -1.1655273, 0.7265625, -0.068481445, 57.250973, 19.348145, -84.35058, 9.0, 47.0, 29.0, 0
57256, -1.0869141, 0.63916016, -0.01965332, 74.95117, 18.249512, -92.16308, 9.0, 47.0, 29.0, 0
57274, -1.0004883, 0.6311035, 4.8828125E-4, 92.956535, 25.268553, -111.02294, 9.0, 47.0, 29.0, 0
57296, -0.9329834, 0.5045166, 0.0, 91.61376, 29.785154, -119.07958, 11.0, 47.0, 23.0, 0
57315, -0.94140625, 0.43444824, 0.007080078, 69.76318, 40.52734, -130.92041, 11.0, 47.0, 23.0, 0
57331, -0.9642334, 0.42956543, 0.02331543, 31.188963, 53.344723, -140.8081, 11.0, 47.0, 23.0, 0
57371, -1.0738525, 0.4975586, 0.053833008, -43.884274, 71.10596, -159.11865, 11.0, 47.0, 23.0, 0
57389, -1.123169, 0.57006836, 0.020874023, -78.063965, 68.0542, -153.56445, 32.0, 47.0, 48.0, 0
57411, -1.1606445, 0.64245605, -0.018432617, -94.604485, 56.457516, -143.18848, 32.0, 47.0, 48.0, 0
57429, -1.1842041, 0.71875, -0.061523438, -97.29003, 44.616695, -133.8501, 32.0, 47.0, 48.0, 0
57451, -1.1955566, 0.8218994, -0.095214844, -74.34082, 32.348633, -122.314445, 32.0, 47.0, 48.0, 0
57469, -1.1535645, 0.8189697, -0.056152344, -53.833004, 26.367186, -121.52099, 32.0, 47.0, 48.0, 0
57487, -1.0913086, 0.7331543, 0.0040283203, -9.094238, 17.944336, -125.732414, 32.0, 47.0, 48.0, 0
57508, -1.0264893, 0.6879883, 0.026611328, -2.319336, 16.845703, -125.3662, 40.0, 32.0, 24.0, 0
57527, -0.96850586, 0.61816406, 0.068115234, 7.0800776, 17.150879, -129.21143, 40.0, 32.0, 24.0, 0
57545, -0.9362793, 0.539917, 0.1270752, 2.1362305, 19.89746, -135.43701, 40.0, 32.0, 24.0, 0
57570, -0.9194336, 0.5107422, 0.18920898, -6.835937, 24.04785, -144.40918, 40.0, 32.0, 24.0, 0
57586, -0.87719727, 0.48510742, 0.21240234, -7.0190425, 24.963377, -147.3999, 40.0, 32.0, 24.0, 0
57603, -0.84729004, 0.47631836, 0.19909668, -6.469726, 24.658201, -146.54541, 44.0, 24.0, 25.0, 0
57627, -0.744751, 0.43652344, 0.092041016, -13.0615225, 22.3999, -138.30566, 44.0, 24.0, 25.0, 0
57645, -0.6817627, 0.48376465, 0.030273438, -10.19287, 17.39502, -129.5166, 44.0, 24.0, 25.0, 0
57666, -0.62890625, 0.5136719, 0.033447266, 4.8217773, 9.887695, -116.271965, 44.0, 24.0, 25.0, 0
57687, -0.5633545, 0.4946289, 0.030395508, 22.583006, 3.4179685, -102.84423, 46.0, 22.0, 22.0, 0
57710, -0.50109863, 0.46862793, 0.0057373047, 32.592773, 0.42724606, -94.482414, 46.0, 22.0, 22.0, 0
57728, -0.47827148, 0.42407227, 0.0052490234, 34.118652, -0.061035153, -89.47753, 46.0, 22.0, 22.0, 0
57746, -0.49645996, 0.383667, 0.03173828, 28.259275, 0.18310545, -67.56592, 46.0, 22.0, 22.0, 0
57803, -0.5456543, 0.4099121, 0.057006836, 4.3945312, -9.033203, -30.395506, 50.0, 18.0, 27.0, 0
57826, -0.5773926, 0.46142578, 0.05517578, -4.4555664, -13.305663, -2.380371, 50.0, 18.0, 27.0, 0
57844, -0.6008301, 0.47009277, 0.037475586, -7.3852534, -17.76123, 19.348145, 50.0, 18.0, 27.0, 0
57866, -0.7052002, 0.4720459, -0.015625, -6.5917964, -21.91162, 36.010742, 50.0, 18.0, 27.0, 0
57885, -0.76135254, 0.48156738, -0.01928711, -1.2817382, -24.841307, 53.100582, 50.0, 18.0, 27.0, 0
57903, -0.8522949, 0.505249, -0.012084961, 1.8310546, -29.84619, 70.3125, 45.0, 20.0, 17.0, 0
57925, -0.88256836, 0.55944824, -0.015136719, -2.319336, -39.123535, 90.698235, 45.0, 20.0, 17.0, 0
57942, -0.8355713, 0.6516113, -0.032958984, -9.887695, -51.025387, 113.09814, 45.0, 20.0, 17.0, 0
57965, -0.7519531, 0.7108154, -0.04724121, -5.981445, -63.293453, 135.37598, 45.0, 20.0, 17.0, 0
57982, -0.6500244, 0.6734619, -0.041992188, 12.08496, -71.3501, 153.86963, 45.0, 20.0, 17.0, 0
58000, -0.623291, 0.5716553, -0.03491211, 26.245115, -70.86182, 164.91698, 41.0, 30.0, 19.0, 0
58022, -0.694458, 0.51452637, -0.036376953, 21.179197, -62.744137, 164.00145, 41.0, 30.0, 19.0, 0
58040, -0.80285645, 0.5292969, -0.0625, 4.272461, -55.053707, 149.6582, 41.0, 30.0, 19.0, 0
58058, -0.8800049, 0.58483887, -0.09375, -10.19287, -52.185055, 133.91113, 41.0, 30.0, 19.0, 0
58079, -0.95288086, 0.64367676, -0.052124023, -14.038085, -51.75781, 128.84521, 41.0, 30.0, 19.0, 0
58096, -1.0336914, 0.67163086, 0.018432617, -6.469726, -51.818844, 133.36182, 32.0, 38.0, 15.0, 0
58119, -1.0982666, 0.6921387, 0.056640625, -1.2207031, -51.63574, 138.91602, 32.0, 38.0, 15.0, 0
58136, -1.1348877, 0.6999512, 0.04248047, 5.9204097, -49.74365, 160.09521, 32.0, 38.0, 15.0, 0
58158, -1.1695557, 0.6970215, -0.004272461, 3.4790037, -46.32568, 167.96873, 32.0, 38.0, 15.0, 0
58177, -1.0571289, 0.76416016, -0.021606445, -3.1127927, -35.949707, 195.6787, 32.0, 38.0, 15.0, 0
58195, -1.0750732, 0.70336914, -0.01171875, 27.526854, -47.0581, 163.81834, 25.0, 40.0, 11.0, 0
58217, -1.0440674, 0.68115234, -0.049194336, 28.19824, -50.72021, 155.76172, 25.0, 40.0, 11.0, 0
58234, -1.013794, 0.63757324, -0.057617188, -4.4555664, -32.348633, 167.9077, 25.0, 40.0, 11.0, 0
58256, -1.027832, 0.47314453, -0.07470703, -44.372555, -19.958496, 150.02441, 25.0, 40.0, 11.0, 0
58274, -0.94226074, 0.5567627, -0.033203125, -67.68799, -22.949217, 136.2915, 25.0, 40.0, 11.0, 0
58292, -1.013916, 0.5904541, -0.09814453, -69.21387, -16.845703, 108.76464, 13.0, 42.0, 10.0, 0
58313, -1.0565186, 0.5739746, -0.10803223, -81.42089, 2.1972656, 114.86816, 13.0, 42.0, 10.0, 0
58330, -1.0220947, 0.493042, -0.099853516, -96.80175, 9.216309, 93.26171, 13.0, 42.0, 10.0, 0
58352, -1.0041504, 0.5473633, -0.111206055, -103.33251, 8.056641, 71.41113, 13.0, 42.0, 10.0, 0
58370, -0.98339844, 0.6123047, -0.14147949, -99.91454, 8.7890625, 65.06348, 13.0, 42.0, 10.0, 0
58388, -0.9371338, 0.64990234, -0.18041992, -67.93213, 7.4462886, 62.6831, 13.0, 42.0, 10.0, 0
58410, -0.85876465, 0.6329346, -0.19787598, -56.091305, 7.8124995, 61.34033, 14.0, 42.0, 13.0, 0
58429, -0.8294678, 0.55700684, -0.21325684, -21.850584, -0.3662109, 51.269527, 14.0, 42.0, 13.0, 0
58446, -0.8060303, 0.51623535, -0.23937988, -19.40918, 0.5493164, 45.593258, 14.0, 42.0, 13.0, 0
58467, -0.7824707, 0.5444336, -0.24694824, -21.240232, 3.6621091, 38.635254, 14.0, 42.0, 13.0, 0
58484, -0.77893066, 0.5600586, -0.2508545, -17.089844, 1.2817382, 30.029295, 14.0, 42.0, 13.0, 0
58502, -0.79455566, 0.5650635, -0.25439453, -10.375976, -0.9155273, 22.27783, 11.0, 42.0, 8.0, 0
58525, -0.7720947, 0.6027832, -0.21459961, 5.5541987, -5.9204097, 17.822266, 11.0, 42.0, 8.0, 0
58542, -0.84350586, 0.57055664, -0.18371582, 19.714355, -11.169433, 9.887695, 11.0, 42.0, 8.0, 0
58564, -0.93774414, 0.55688477, -0.16271973, 17.456055, -10.131835, 5.5541987, 11.0, 42.0, 8.0, 0
58582, -1.0057373, 0.5545654, -0.14868164, 12.817382, -5.4931636, -6.6528316, 11.0, 42.0, 8.0, 0
58600, -1.072876, 0.5539551, -0.12512207, 8.666992, -3.1127927, -19.714355, 6.0, 42.0, 8.0, 0
58623, -1.1723633, 0.54785156, -0.11206055, 1.5258788, -2.4414062, -35.339355, 6.0, 42.0, 8.0, 0
58641, -1.2625732, 0.55908203, -0.1159668, -12.268065, -0.18310545, -50.47607, 6.0, 42.0, 8.0, 0
58662, -1.2501221, 0.60913086, -0.092041016, -19.226074, 2.319336, -62.866207, 6.0, 42.0, 8.0, 0
58680, -1.1647949, 0.56884766, -0.06945801, -27.465818, 7.93457, -70.739746, 6.0, 42.0, 8.0, 0
58698, -1.0158691, 0.45166016, -0.046142578, -42.78564, 17.150879, -80.01709, 15.0, 44.0, 10.0, 0
58721, -0.89294434, 0.2911377, -0.044677734, -68.481445, 38.45215, -89.66064, 15.0, 44.0, 10.0, 0
58739, -0.8540039, 0.24047852, -0.10522461, -90.14892, 51.330563, -106.933586, 15.0, 44.0, 10.0, 0
58760, -0.9550781, 0.4140625, -0.17529297, -90.576164, 51.025387, -116.45507, 15.0, 44.0, 10.0, 0
58778, -1.0725098, 0.7307129, -0.13024902, -64.63623, 50.048824, -142.82227, 15.0, 44.0, 10.0, 0
58796, -1.0705566, 0.8623047, -0.088012695, -38.146973, 47.241207, -187.13377, 26.0, 43.0, 12.0, 0
58819, -1.2026367, 0.8138428, 0.0970459, -22.3999, 40.89355, -202.69774, 26.0, 43.0, 12.0, 0
58836, -1.2746582, 0.5722656, 0.095947266, -5.4321284, 27.099607, -159.91211, 26.0, 43.0, 12.0, 0
58859, -1.3178711, 0.4987793, 0.12878418, -13.122558, 27.526854, -141.17432, 26.0, 43.0, 12.0, 0
58876, -1.3215332, 0.52734375, 0.14501953, -48.400875, 44.494625, -167.54149, 26.0, 43.0, 12.0, 0
58894, -1.300415, 0.59643555, 0.1673584, -54.01611, 45.898434, -168.76219, 36.0, 33.0, 16.0, 0
58917, -1.2385254, 0.6060791, 0.17993164, -57.617184, 44.982906, -159.97314, 36.0, 33.0, 16.0, 0
58934, -1.1356201, 0.5917969, 0.11450195, -55.358883, 42.724606, -158.6914, 36.0, 33.0, 16.0, 0
58958, -1.072998, 0.55529785, 0.09741211, -39.611816, 39.916992, -165.16112, 36.0, 33.0, 16.0, 0
58976, -1.0310059, 0.5263672, 0.08862305, -16.723633, 36.376953, -170.41014, 36.0, 33.0, 16.0, 0
58994, -0.9246826, 0.46191406, 0.04724121, 12.634276, 30.761717, -173.03465, 46.0, 26.0, 13.0, 0
59020, -0.8416748, 0.397583, 0.064697266, 18.920898, 29.907225, -169.37254, 46.0, 26.0, 13.0, 0
59038, -0.74938965, 0.38415527, 0.068847656, 24.04785, 29.296873, -150.63477, 46.0, 26.0, 13.0, 0
59060, -0.7059326, 0.34899902, 0.0657959, 22.52197, 29.479979, -142.7002, 46.0, 26.0, 13.0, 0
59078, -0.67749023, 0.26745605, 0.059570312, 8.361816, 31.799314, -121.704094, 46.0, 26.0, 13.0, 0
59094, -0.63757324, 0.22875977, 0.037963867, -25.81787, 31.799314, -95.214836, 51.0, 17.0, 13.0, 0
59116, -0.5584717, 0.33691406, -0.03955078, -54.8706, 27.099607, -74.8291, 51.0, 17.0, 13.0, 0
59134, -0.53515625, 0.39038086, 0.06628418, -22.03369, 19.40918, -64.63623, 51.0, 17.0, 13.0, 0
59160, -0.54589844, 0.2701416, 0.0814209, -15.319823, 17.39502, -55.9082, 51.0, 17.0, 13.0, 0
59177, -0.57910156, 0.30810547, 0.031982422, -25.695799, 10.925292, -38.635254, 51.0, 17.0, 13.0, 0
59194, -0.6326904, 0.37353516, -0.022338867, -33.87451, 4.5776367, -22.03369, 51.0, 11.0, 14.0, 0
59216, -0.6828613, 0.35461426, 0.012939453, -31.433104, -0.48828122, -0.122070305, 51.0, 11.0, 14.0, 0
59234, -0.74438477, 0.33789062, 0.042114258, -19.16504, -3.3569334, 18.676758, 51.0, 11.0, 14.0, 0
59252, -0.80444336, 0.40478516, -1.2207031E-4, -1.6479491, -7.93457, 28.991697, 51.0, 11.0, 14.0, 0
59273, -0.8165283, 0.4420166, -0.007080078, 22.460936, -13.122558, 41.076656, 51.0, 11.0, 14.0, 0
59287, -0.82141113, 0.4033203, 0.00390625, 36.132812, -15.563964, 63.35449, 51.0, 11.0, 14.0, 0
59305, -0.8939209, 0.36950684, 0.0012207031, 35.705566, -16.540527, 73.18115, 49.0, 16.0, 10.0, 0
59327, -0.96643066, 0.39172363, 2.4414062E-4, 31.127928, -20.1416, 90.820305, 49.0, 16.0, 10.0, 0
59348, -0.95703125, 0.46166992, -0.038330078, 25.93994, -29.479979, 124.084465, 49.0, 16.0, 10.0, 0
59370, -0.92492676, 0.47753906, -0.059570312, 26.611326, -32.836914, 134.70459, 49.0, 16.0, 10.0, 0
59385, -0.9066162, 0.48291016, -0.06945801, 26.367186, -39.489746, 150.6958, 49.0, 16.0, 10.0, 0
59403, -0.87402344, 0.5196533, -0.08618164, 24.841307, -44.06738, 159.24072, 42.0, 25.0, 15.0, 0
59425, -0.8510742, 0.52783203, -0.0847168, 25.878904, -46.020504, 164.48973, 42.0, 25.0, 15.0, 0
59444, -0.8814697, 0.5541992, -0.087768555, 26.18408, -40.710445, 155.70068, 42.0, 25.0, 15.0, 0
59470, -0.95092773, 0.5599365, -0.079589844, 22.03369, -34.66797, 144.53125, 42.0, 25.0, 15.0, 0
59491, -1.0189209, 0.5533447, -0.06665039, 10.009766, -26.855467, 134.0332, 35.0, 31.0, 11.0, 0
59514, -1.0827637, 0.6077881, -0.06506348, 7.0800776, -19.53125, 123.41308, 35.0, 31.0, 11.0, 0
59532, -1.1685791, 0.6140137, -0.016357422, 13.610839, -16.052246, 120.11718, 35.0, 31.0, 11.0, 0
59550, -1.2427979, 0.53881836, 0.036499023, 24.04785, -6.347656, 118.408195, 35.0, 31.0, 11.0, 0
59571, -1.2419434, 0.6265869, 0.015380859, 13.122558, -0.7324218, 129.88281, 35.0, 31.0, 11.0, 0
59591, -1.1688232, 0.70788574, -0.0126953125, 47.363277, -4.211426, 127.868645, 29.0, 37.0, 13.0, 0
59614, -1.1417236, 0.61828613, -0.029907227, 65.91797, -9.521484, 119.44579, 29.0, 37.0, 13.0, 0
59630, -1.0142822, 0.66015625, -0.01953125, 63.59863, -3.173828, 145.44678, 29.0, 37.0, 13.0, 0
59648, -0.9232178, 0.42358398, 0.018920898, 53.466793, -1.7089843, 140.93018, 29.0, 37.0, 13.0, 0
59668, -0.8625488, 0.4437256, 0.017456055, 46.81396, -10.498046, 120.91064, 29.0, 37.0, 13.0, 0
59687, -0.8574219, 0.6419678, -0.042114258, 39.489746, -17.822266, 77.20947, 29.0, 37.0, 13.0, 0
59705, -0.9481201, 0.56604004, -0.041992188, 44.128414, -9.155273, 94.17724, 25.0, 38.0, 10.0, 0
59728, -0.8466797, 0.47546387, -0.008422852, 43.457027, -14.22119, 88.86718, 25.0, 38.0, 10.0, 0
59746, -0.86376953, 0.4942627, -0.0021972656, 35.52246, -22.705076, 73.791504, 25.0, 38.0, 10.0, 0
59769, -0.9346924, 0.47705078, 0.015625, 26.30615, -23.559568, 73.66943, 25.0, 38.0, 10.0, 0
59786, -0.9361572, 0.4885254, 0.021606445, 26.672361, -23.559568, 79.3457, 25.0, 38.0, 10.0, 0
59804, -0.9361572, 0.50268555, -2.4414062E-4, 25.146482, -24.475096, 75.74463, 16.0, 39.0, 8.0, 0
59826, -0.88879395, 0.5185547, -0.030639648, 18.432617, -23.193357, 70.19043, 16.0, 39.0, 8.0, 0
59844, -0.85827637, 0.5410156, -0.04748535, 17.27295, -20.26367, 60.913082, 16.0, 39.0, 8.0, 0
59867, -0.8586426, 0.5941162, -0.08081055, 14.709472, -17.51709, 50.23193, 16.0, 39.0, 8.0, 0
59884, -0.84716797, 0.60717773, -0.11999512, 12.20703, -13.610839, 43.701168, 16.0, 39.0, 8.0, 0
59902, -0.836792, 0.5905762, -0.13342285, 9.70459, -8.972168, 32.409668, 18.0, 40.0, 8.0, 0
59924, -0.85546875, 0.5878906, -0.114746094, 6.103515, -4.9438477, 19.40918, 18.0, 40.0, 8.0, 0
59942, -0.8666992, 0.63171387, -0.09741211, 15.136718, -7.263183, 6.774902, 18.0, 40.0, 8.0, 0
59958, -0.9465332, 0.59558105, -0.09790039, 14.343261, -5.615234, -8.239746, 18.0, 40.0, 8.0, 0
59980, -1.0323486, 0.56188965, -0.09057617, 6.2255855, -2.0141602, -13.183593, 18.0, 40.0, 8.0, 0
59997, -1.048584, 0.57580566, -0.08557129, -1.6479491, -1.4648436, -29.052732, 17.0, 35.0, 12.0, 0
60019, -1.1193848, 0.5805664, -0.053466797, 1.2817382, -2.1362305, -45.288082, 17.0, 35.0, 12.0, 0
60037, -1.1571045, 0.5706787, -0.038330078, 2.0141602, 1.2207031, -55.9082, 17.0, 35.0, 12.0, 0
60055, -1.2723389, 0.5819092, -0.021850586, -5.1269526, 5.981445, -68.29834, 17.0, 35.0, 12.0, 0
60075, -1.3085938, 0.63916016, -0.033691406, -15.136718, 7.3242183, -77.819824, 17.0, 35.0, 12.0, 0
60093, -1.2299805, 0.6439209, -0.024536133, -16.052246, 9.094238, -81.42089, 15.0, 34.0, 7.0, 0
60115, -1.1120605, 0.5489502, 0.005126953, -17.150879, 15.380858, -85.81542, 15.0, 34.0, 7.0, 0
60133, -0.9835205, 0.44604492, 0.017089844, -28.503416, 24.780272, -95.82519, 15.0, 34.0, 7.0, 0
60151, -0.87072754, 0.3927002, 0.01928711, -35.27832, 29.296873, -103.08837, 15.0, 34.0, 7.0, 0
60169, -0.84155273, 0.37280273, 0.008056641, -50.537106, 38.269043, -123.840324, 15.0, 34.0, 7.0, 0
60186, -0.87438965, 0.37487793, -0.02746582, -75.68359, 45.532223, -141.29639, 15.0, 34.0, 7.0, 0
60204, -0.93310547, 0.47058105, -0.044067383, -90.75927, 45.8374, -150.75684, 23.0, 32.0, 11.0, 0
60226, -1.0456543, 0.46044922, -0.03527832, -92.712395, 44.372555, -158.63037, 23.0, 32.0, 11.0, 0
60244, -1.1170654, 0.50341797, -0.014404297, -102.9663, 40.2832, -151.48926, 23.0, 32.0, 11.0, 0
60262, -1.1849365, 0.5734863, 0.0048828125, -105.34667, 38.085938, -147.27783, 23.0, 32.0, 11.0, 0
60280, -1.2193604, 0.6657715, 0.009155273, -86.3037, 24.53613, -130.98145, 23.0, 32.0, 11.0, 0
60298, -1.2229004, 0.70825195, 0.010253906, -72.5708, 18.066406, -130.06592, 30.0, 31.0, 0.0, 0
60320, -1.1881104, 0.62841797, 0.029052734, -47.97363, 8.911133, -128.41797, 30.0, 31.0, 0.0, 0
60338, -1.168457, 0.583374, 0.020385742, -38.69629, 3.967285, -126.95312, 30.0, 31.0, 0.0, 0
60359, -1.0909424, 0.5554199, -0.014526367, -27.9541, 0.24414061, -134.52148, 30.0, 31.0, 0.0, 0
60377, -0.9941406, 0.5328369, -0.049804688, -7.995605, -2.5024414, -142.08984, 30.0, 31.0, 0.0, 0
60395, -0.9169922, 0.48376465, -0.02709961, 15.197753, -1.0986328, -143.24951, 35.0, 27.0, 8.0, 0
60417, -0.8568115, 0.40686035, -0.033935547, 34.606934, 2.380371, -139.77051, 35.0, 27.0, 8.0, 0
60435, -0.8222656, 0.33068848, -0.09277344, 36.56006, 1.2207031, -140.8081, 35.0, 27.0, 8.0, 0
60456, -0.7895508, 0.3980713, -0.07373047, 33.87451, 3.4790037, -148.07129, 35.0, 27.0, 8.0, 0
60474, -0.73876953, 0.50097656, -0.020263672, 40.954586, 5.1269526, -151.5503, 35.0, 27.0, 8.0, 0
60492, -0.68481445, 0.4597168, -0.007446289, 47.668453, -1.2207031, -132.08008, 35.0, 27.0, 8.0, 0
60513, -0.63635254, 0.38513184, -0.045898438, 49.011227, -5.5541987, -116.57714, 40.0, 24.0, 15.0, 0
60532, -0.57702637, 0.34362793, -0.052246094, 49.07226, -15.319823, -81.66503, 40.0, 24.0, 15.0, 0
60549, -0.52246094, 0.3293457, -0.018798828, 52.6123, -18.127441, -60.974117, 40.0, 24.0, 15.0, 0
60573, -0.53149414, 0.3109131, -0.005126953, 54.13818, -18.554688, -49.62158, 40.0, 24.0, 15.0, 0
60590, -0.588501, 0.31298828, -0.016357422, 52.12402, -17.76123, -33.87451, 40.0, 24.0, 15.0, 0
60606, -0.61486816, 0.3187256, -0.014892578, 44.494625, -18.615723, -27.282713, 40.0, 23.0, 16.0, 0
60628, -0.6582031, 0.3531494, 0.01159668, 36.43799, -22.460936, -19.592285, 40.0, 23.0, 16.0, 0
60646, -0.70739746, 0.4465332, 0.06896973, 36.743164, -28.808592, -6.408691, 40.0, 23.0, 16.0, 0
60670, -0.7260742, 0.4753418, 0.06213379, 44.06738, -36.8042, 13.427733, 40.0, 23.0, 16.0, 0
60688, -0.74938965, 0.48583984, 0.049804688, 49.438473, -42.114254, 34.79004, 40.0, 23.0, 16.0, 0
60705, -0.78356934, 0.5079346, 0.03527832, 48.95019, -44.06738, 50.47607, 40.0, 23.0, 14.0, 0
60727, -0.84484863, 0.5238037, 0.04284668, 45.532223, -44.860836, 64.39209, 40.0, 23.0, 14.0, 0
60825, -0.87927246, 0.6300049, 0.08898926, -41.687008, -54.62646, 180.78612, 37.0, 29.0, 15.0, 0
60847, -0.82177734, 0.5838623, 0.008178711, -36.8042, -47.546383, 185.18065, 37.0, 29.0, 15.0, 0
60865, -0.8380127, 0.53027344, -0.07019043, -44.67773, -38.208008, 168.0908, 37.0, 29.0, 15.0, 0
60883, -0.88830566, 0.59375, -0.114868164, -48.33984, -28.991697, 144.71436, 37.0, 29.0, 15.0, 0
60922, -0.9560547, 0.701416, -0.038085938, -19.348145, -24.841307, 145.75195, 26.0, 35.0, 12.0, 0
60944, -1.0721436, 0.60131836, -0.006958008, -14.038085, -22.338865, 156.12793, 26.0, 35.0, 12.0, 0
60962, -1.1282959, 0.62158203, 0.012084961, -9.643555, -8.300781, 169.43358, 26.0, 35.0, 12.0, 0
60980, -1.1385498, 0.5999756, 0.07348633, 44.006344, -25.146482, 132.26318, 26.0, 35.0, 12.0, 0
61058, -1.0299072, 0.50231934, -0.099853516, 76.47705, -13.793944, 80.078125, 16.0, 36.0, 4.0, 0
61092, -0.93859863, 0.5172119, -0.09399414, 86.48681, -29.96826, 67.87109, 16.0, 36.0, 4.0, 0
61109, -0.9147949, 0.4885254, -0.08288574, 56.701656, -15.319823, 77.20947, 15.0, 36.0, 10.0, 0
61127, -0.83496094, 0.49987793, -0.052246094, 35.88867, -11.718749, 68.90869, 15.0, 36.0, 10.0, 0
61149, -0.8062744, 0.5151367, -0.02709961, 25.93994, -12.329101, 62.499996, 15.0, 36.0, 10.0, 0
61167, -0.8062744, 0.51000977, -0.01953125, 17.8833, -13.0615225, 62.43896, 15.0, 36.0, 10.0, 0
61185, -0.8079834, 0.52905273, -0.017211914, 15.930175, -13.244628, 57.80029, 15.0, 36.0, 10.0, 0
61262, -0.81591797, 0.5734863, -0.060913086, 57.861324, -17.822266, 44.43359, 7.0, 34.0, 5.0, 0
61301, -0.80737305, 0.5800781, -0.08972168, 59.875484, -13.427733, 32.592773, 11.0, 36.0, 2.0, 0
61334, -0.84729004, 0.6212158, -0.13085938, 55.419918, -10.375976, 19.714355, 11.0, 36.0, 2.0, 0
61351, -0.8704834, 0.58691406, -0.12597656, 56.335445, -10.0708, 9.887695, 11.0, 36.0, 2.0, 0
61369, -0.89538574, 0.56811523, -0.12988281, 52.24609, -7.3852534, -1.5258788, 11.0, 36.0, 2.0, 0
61390, -0.9707031, 0.5560303, -0.15490723, 47.363277, -3.2958982, -12.756347, 11.0, 36.0, 2.0, 0
61408, -1.053833, 0.564209, -0.16271973, 48.58398, -0.122070305, -27.343748, 6.0, 39.0, 1.0, 0
61432, -1.0437012, 0.5921631, -0.11694336, 54.931637, -0.793457, -40.2832, 6.0, 39.0, 1.0, 0
61449, -1.0394287, 0.5422363, -0.12854004, 49.804684, 0.8544921, -56.091305, 6.0, 39.0, 1.0, 0
61505, -1.0883789, 0.619751, -0.16955566, 28.19824, -2.7465818, -73.97461, 10.0, 42.0, 5.0, 0
61547, -0.8692627, 0.5638428, -0.111083984, 46.630856, -7.629394, -64.086914, 10.0, 42.0, 5.0, 0
61580, -0.8149414, 0.39990234, -0.10168457, 31.799314, 5.9204097, -75.56152, 10.0, 42.0, 5.0, 0
61600, -0.8913574, 0.35095215, -0.0871582, 13.8549795, 19.470215, -93.200676, 18.0, 43.0, -2.0, 0
61641, -1.0770264, 0.5142822, -0.1430664, -57.128902, 25.512693, -104.24804, 18.0, 43.0, -2.0, 0
61690, -1.1934814, 0.76379395, -0.1928711, -53.89404, 0.122070305, -95.03173, 18.0, 43.0, -2.0, 0
61918, -0.6464844, 0.48815918, -0.14941406, 58.959957, 6.7138667, -137.20703, 36.0, 28.0, 10.0, 0
62131, -0.6583252, 0.4227295, 0.17529297, 56.335445, -57.983395, 21.667479, 41.0, 24.0, 9.0, 0
61976, -0.5390625, 0.55566406, -0.07055664, 57.373043, -8.483887, -100.402824, 36.0, 28.0, 10.0, 0
61937, -0.62609863, 0.4593506, -0.14660645, 50.47607, 1.7089843, -124.99999, 36.0, 28.0, 10.0, 0
62181, -0.7324219, 0.3630371, 0.084350586, 14.709472, -60.852047, 76.66016, 41.0, 24.0, 9.0, 0
62211, -0.8964844, 0.49475098, 0.07775879, -16.662598, -71.22803, 93.68896, 39.0, 30.0, 5.0, 0
62230, -0.72314453, 0.82214355, 0.19299316, 0.48828122, -92.28515, 116.82128, 39.0, 30.0, 5.0, 0
62250, -0.64953613, 0.68969727, 0.24645996, 13.488769, -97.83935, 136.90186, 39.0, 30.0, 5.0, 0
62288, -0.6739502, 0.5070801, 0.18225098, -24.29199, -92.22411, 123.29101, 39.0, 30.0, 5.0, 0
62346, -0.9161377, 0.7047119, 0.13342285, 10.0708, -68.78662, 115.78368, 34.0, 32.0, 0.0, 0
62405, -1.2056885, 0.73620605, 0.18835449, 23.132322, -74.279785, 143.61572, 28.0, 39.0, -3.0, 0
62424, -1.1964111, 0.7786865, 0.18664551, 49.133297, -69.58008, 175.23192, 28.0, 39.0, -3.0, 0
62441, -1.1264648, 0.7564697, 0.19470215, 69.45801, -73.6084, 161.25487, 28.0, 39.0, -3.0, 0
62498, -0.93530273, 0.65734863, 0.13867188, 105.46874, -77.88086, 138.06152, 14.0, 38.0, -5.0, 0
62719, -0.9139404, 0.57592773, 0.05407715, 0.8544921, -25.81787, 70.55664, 6.0, 38.0, -14.0, 0
62750, -0.91638184, 0.638916, -0.0026855469, -2.1972656, -17.333984, 63.47656, 6.0, 38.0, -14.0, 0
62768, -0.9395752, 0.66796875, -0.030761719, -0.42724606, -11.596679, 55.114742, 6.0, 38.0, -14.0, 0
62807, -1.0284424, 0.6730957, -0.048217773, -7.93457, -0.42724606, 30.578611, 7.0, 38.0, -15.0, 0
62913, -1.15271, 0.6314697, -0.122680664, -66.223145, 47.119137, -41.992184, 5.0, 37.0, -10.0, 0
63140, -1.2412109, 0.5362549, 0.049560547, -130.49316, 12.756347, -100.09765, 10.0, 32.0, -4.0, 0
